timestamp_ms,ax,ay,az,gx,gy,gz,baro_alt,gps_lat,gps_lon,gps_vel_n,gps_vel_e,gps_vel_d,gps_fix,v_batt,ground_truth,accel_mag,gyro_mag,gps_speed_2d,jerk_accel,baro_sink_rate,v_batt_rate,accel_mag_rolling_var,gyro_mag_rolling_max,baro_sink_rate_rolling_mean,accel_saturated,gyro_saturated,predicted_label,confidence,critical_reason
0.0,0.09934283060224654,-0.13503565499487633,9.55095191851052,-5.570406791165437,-0.1651263185978028,-6.784947304872217,50.058740702879284,37.7749,-122.4194,4.9551518088903626,0.08793072927089764,0.03218351900227705,3,16.506965724953336,0,9.552423052598316,8.780216879442582,4.955931926721709,0.0,0.0,0.0,0.0,8.780216879442582,0.0,False,False,0,0.05,NORMAL_FLIGHT
20.0,-0.027652860234236933,-0.028903734143103568,9.800638953318275,-3.15465416868895,-2.5182513018779815,-3.054994630536529,49.96479165564159,37.774901,-122.4194,4.9578330562690835,0.0039309198743465315,-0.07813576956169463,3,16.504816046638105,0,9.800720585743994,5.06225490626892,4.9578346146241605,12.414876657283891,4.6974523618846575,-0.10748391576154148,0.030825832483114487,8.780216879442582,2.3487261809423288,False,False,0,0.05,NORMAL_FLIGHT
40.0,0.1295377076201385,-0.15848398419999227,9.815405061613335,-4.7103009178712245,-0.8618747872683098,-5.973810610451428,49.94840190284772,37.774902000000004,-122.4194,5.4470854869513925,-0.09123255140663579,0.06913563810805254,3,16.47956875265868,0,9.817539086476206,7.656120172474395,5.447849454655723,0.8409250366105958,0.8194876396935058,-1.2623646989712967,0.022036839725375085,8.780216879442582,1.8389800005260544,False,False,0,0.05,NORMAL_FLIGHT
60.0,0.3046059712816051,-0.06159230592780806,9.951789103753022,-2.739979093705689,3.573658637588499,1.1041804694611956,49.94631890167865,37.774903,-122.4194,5.16186218078626,-0.046249915319996934,-0.059036169180533074,3,16.509040408797453,0,9.956640235313682,4.636565108040076,5.162069374591802,6.955057441873791,0.10415005845345604,1.4735828069387225,0.028272719657036424,8.780216879442582,1.4052725150079048,False,False,0,0.05,NORMAL_FLIGHT
80.0,-0.046830674944667194,-0.37872293339075713,9.399942491015752,-1.0707515535559438,6.38928327515257,11.971785314619128,49.94711433459864,37.774904,-122.4194,5.496130183502428,0.034285346578164795,0.07495550374451283,3,16.46679664563804,0,9.407685316101686,13.612240567919633,5.496237119975485,27.44774596059978,-0.03977164599930916,-2.112188157970607,0.04920149939253316,13.612240567919633,1.116263682806462,False,False,1,0.9,RAPID_VOLTAGE_COLLAPSE
100.0,-0.04682739138983611,0.042658741474587716,9.9877701821542,4.185772431656922,2.8524366543178674,-7.710421571412046,49.95613913740254,37.774905000000004,-122.4194,4.9006073734159,0.18184643783815932,-0.027411147538072146,3,16.48266418742176,0,9.987971054440292,9.225382730565244,4.90398009328471,29.01428691693031,-0.45124014019499725,0.7933770891860092,0.05347871101870986,13.612240567919633,1.0260156547674626,False,False,0,0.05,NORMAL_FLIGHT
120.0,0.3158425631014783,0.00024109507244484738,8.998682510519169,-1.6057951935285122,0.5086160423588489,10.00820497768414,49.98666112839302,37.774906,-122.4194,4.9830066806223705,-0.048401962319627845,-0.1721047125629663,3,16.454915692466408,0,9.004223648261794,10.148962279831652,4.983241749010735,49.187370308924905,-1.5260995495239627,-1.387424747767696,0.1777280296992073,13.612240567919633,-0.21869472751426144,False,False,0,0.05,NORMAL_FLIGHT
140.0,0.15348694583058176,-0.16341772621363815,9.621034634290858,-7.928128533847963,7.490058851522138,-7.816720723468876,49.98489075644075,37.774907,-122.4194,4.733574846944671,0.08047874435273991,-0.09824162404809371,3,16.52521955385101,0,9.623646451839628,13.418544128078395,4.734258934608442,30.971140178891687,0.0885185976134295,3.5151930692300937,0.16753216955889824,13.612240567919633,-0.3648885359302767,False,False,0,0.05,NORMAL_FLIGHT
160.0,-0.09389487718699042,0.13184913368648102,9.663517847264536,5.700339232475802,-1.564182365257611,-8.476272124968842,49.966487842333564,37.774908,-122.4194,4.838086639582086,-0.032805645067676005,-0.04304147086872844,3,16.488565608420245,0,9.664873389052547,10.333814541281914,4.83819786102749,2.0613468606459406,0.9201457053592321,-1.8326972715382084,0.13195117995529415,13.612240567919633,-0.20168940654912149,False,False,1,0.9,RAPID_VOLTAGE_COLLAPSE
180.0,0.10851200871719294,0.18751402752531168,9.999998047821371,-4.185450668075198,5.154596691834535,8.185946183432133,49.94610837510058,37.774909,-122.4194,5.3803826297325,0.011046875588613572,0.1368189023748578,3,16.535683853782867,0,10.002344591293875,10.540283642692437,5.38039397031365,16.87356011206642,1.0189733616492447,2.3559122681310996,0.16402384676011958,13.418544128078395,0.010059594980589281,False,False,0,0.05,NORMAL_FLIGHT
200.0,-0.09268353856249245,-0.32151197287379485,9.81678925580306,-0.2936021355231436,-1.4403139917563932,9.219363780076167,49.91553258499866,37.774910000000006,-122.4194,4.8955931420316485,0.15153967492635925,0.09011436305292249,3,16.507554746404328,0,9.822490085506429,9.335811433304192,4.897937983007145,8.992725289372316,1.5287895050960287,-1.4064553689269843,0.14208381396312864,13.418544128078395,0.4060655240387945,False,False,0,0.05,NORMAL_FLIGHT
220.0,-0.09314595071405138,-0.15254495571324286,9.388331083843115,2.2326825347035575,2.1551147900544656,8.514099367626542,49.954909751215006,37.774911,-122.4194,5.3838562600288915,0.07642925814204332,0.1623861412322142,3,16.49960728692835,0,9.390032304071314,9.061968831379883,5.384398727820259,21.622889071755758,-1.9688583108173674,-0.3973729737989373,0.052389373613092816,13.418544128078395,0.31751377178011353,False,False,0,0.05,NORMAL_FLIGHT
240.0,0.04839245431320682,-0.15382846995745966,9.514502062254897,0.998052092013914,-0.5678128239522574,-13.157974082181411,49.92258332724118,37.774912,-122.4194,4.751327547864022,-0.12412992727409569,0.16536352160298584,3,16.478070343563104,0,9.51586856363919,13.207982485178261,4.752948737987462,6.291812978393807,1.616321198691395,-1.0768471682622405,0.05886370278849115,13.207982485178261,0.6230742919957066,False,False,0,0.05,NORMAL_FLIGHT
260.0,-0.3826560489315596,-0.18798062022177295,9.869604002864223,5.470897737607378,-0.27926091326405433,-4.659509780720508,49.96492188269159,37.774913000000005,-122.4194,4.789306193185345,-0.05724750238115909,-0.053475080459091495,3,16.46801747152237,0,9.878807900689049,7.191643769658274,4.789648326193936,18.14696685249295,-2.1169277725206825,-0.5026436020367342,0.0664931858448099,13.207982485178261,0.015659596419723698,False,False,0,0.05,NORMAL_FLIGHT
280.0,-0.3449835665026066,0.1658949683863497,9.786279797440633,2.3950157169637944,-1.8869325873110496,8.229885920033214,49.96587183680458,37.774914,-122.4194,4.931753755795316,0.1256221344441359,-0.018848685975882944,3,16.498553478501453,0,9.793763682848766,8.77653901776326,4.9333534262673195,4.25221089201413,-0.04749770564949074,1.5268003489541826,0.04594759729199613,13.207982485178261,-0.19763461704002339,False,False,0,0.05,NORMAL_FLIGHT
300.0,-0.11245750584819454,-0.038765227754560705,9.636262767109276,-4.30654789848554,6.724270155903472,0.41541840563894605,49.93980909646178,37.774915,-122.4194,4.987250015664165,0.014187804262849532,-0.041127992433053845,3,16.485813341625445,0,9.636996915547964,7.995919983545854,4.987270196463393,7.838338365040087,1.303137017140088,-0.637006843800414,0.03963152608750823,13.207982485178261,-0.24276511463121153,False,False,0,0.05,NORMAL_FLIGHT
320.0,-0.20256622406688476,-0.05290296826212215,9.665749863146406,10.892810869958309,-3.6646301905426752,-10.736928461974642,49.970729457248986,37.774916000000005,-122.4194,5.184617458490026,-0.11488401196158636,-0.06715106053010765,3,16.459607790288594,0,9.668016974338554,15.727824893470803,5.185890138354646,1.5510029395295,-1.5460180393603196,-1.3102775668425437,0.019913003020315553,15.727824893470803,-0.15819706033980196,False,False,0,0.05,NORMAL_FLIGHT
340.0,0.06284946651905478,-0.4007724728813507,10.018850399147787,0.9716673166911661,-3.701161262743542,4.583179391254417,49.93435676101283,37.774917,-122.4194,5.090154083437254,-0.0818952444973721,-0.18414947093364586,3,16.455205603055525,0,10.027059985407734,5.97061683576985,5.0908128451362495,17.952150553458956,1.81863481180784,-0.2201093616534422,0.025447755595515008,15.727824893470803,-0.11773433771651298,False,False,0,0.05,NORMAL_FLIGHT
360.0,-0.1816048151042422,0.1270836060418453,9.654692228139236,-0.7367011331075312,10.604967829225547,-7.148072589914705,49.96626596304924,37.774918,-122.4194,4.916736948531194,0.07034935227111719,-0.001474771801684241,3,16.465518271590216,0,9.65723628021422,12.81026982421216,4.917240206906391,18.491185259675635,-1.5954601018204784,0.5156334267345741,0.026638685248664497,15.727824893470803,-0.013440803576472149,False,False,0,0.05,NORMAL_FLIGHT
380.0,-0.2824607402670583,-0.24785167897069452,9.783572626791278,4.8196271152778545,4.889237823271657,17.94524848392212,49.97690226910883,37.774919000000004,-122.4194,4.973336838696379,0.09944102812176303,-0.12855655937111107,3,16.520261265465805,0,9.79078688708218,19.21367729437915,4.974330892613438,6.677530343397997,-0.5318153029794104,2.7371496937794504,0.026585165144555153,19.21367729437915,-0.11030432304245608,False,False,0,0.05,NORMAL_FLIGHT
400.0,0.29312975378431083,0.011986526053265651,10.460980976424164,1.247254729650361,-11.925568493465182,15.448414624182584,49.947086034654234,37.77492,-122.4194,4.93618741604306,0.0017855301482174405,-0.00341718815343274,3,16.5272570541081,0,10.465093966060158,19.555775173938336,4.936187738976281,33.71535394889884,1.4908117227296458,0.34978943211481095,0.11445302247135211,19.555775173938336,-0.07276938192454452,False,False,0,0.05,NORMAL_FLIGHT
420.0,-0.04515526009730714,0.05547538759163834,9.382895208934823,1.9961409646966355,-2.826293696052018,6.040974263555673,49.97351777542096,37.774921,-122.4194,4.817069252934854,0.24753138009361023,0.21157708095629846,3,16.486240853481444,0,9.383167856219718,6.961744383430449,4.823424921329387,54.096305492022,-1.3215870383362471,-2.0508100313328725,0.16680280582967055,19.555775173938336,-0.027883181719730032,False,False,1,0.9,RAPID_VOLTAGE_COLLAPSE
440.0,0.013505640937584768,0.2721317191677302,9.254447180527603,12.460919993003435,-9.059946687810271,13.610067047697736,50.00084726170539,37.774922000000004,-122.4194,4.822407412679675,0.08241523634556386,-0.05093450963307086,3,16.48426950124749,0,9.258457252268848,20.557020360471135,4.823111601969186,6.235530197543504,-1.3664743142214775,-0.09856761169775297,0.22254575857389763,20.557020360471135,-0.6649050069255935,False,False,0,0.05,NORMAL_FLIGHT
460.0,-0.28494963724269134,-0.26176407982382244,10.045076899439582,-1.3756071412752333,-4.753453467076276,0.647913501233811,50.05872324199589,37.774923,-122.4194,5.205576778286682,-0.02434810696329004,0.019477400562806724,3,16.473713812673463,0,10.052526381209129,4.990732088167821,5.205633719822232,39.70345644701405,-2.8937990145252,-0.5277844287013167,0.2431806671755264,20.557020360471135,-0.9245727894665379,False,False,0,0.05,NORMAL_FLIGHT
480.0,-0.10887654490503654,-0.6039024311641651,9.606407081611769,-1.5888044700869792,-15.692573331170198,7.654374943750159,50.107030592616354,37.774924000000006,-122.4194,4.634367014414572,-0.08157060480993443,0.09066483858092832,3,16.46090008793126,0,9.62598614511974,17.531988283644065,4.635084830708376,21.327011804469453,-2.4153675310230938,-0.6406862371100885,0.2485482173107121,20.557020360471135,-1.3012832350752745,False,False,0,0.05,NORMAL_FLIGHT
500.0,0.02218451794197322,0.03676990895073897,9.714528741677215,0.582892560062319,-0.6849478884697119,14.77720295302075,50.13159429365267,37.774925,-122.4194,5.323471739489011,-0.09748843046390415,0.0280291291965907,3,16.506242950836988,0,9.714623659818905,14.80454810054195,5.324364314658838,4.431875734958268,-1.2281850518157,2.2671431452863544,0.0955049866004585,20.557020360471135,-1.8450825899843437,False,False,0,0.05,NORMAL_FLIGHT
520.0,-0.23019871548446058,0.36010223630217075,9.575653086560667,5.357579677905193,-5.7097090958065575,2.454986817943127,50.07521474609223,37.774926,-122.4194,4.931401154879554,0.03354213204803695,0.029248418794229587,3,16.51536047235018,0,9.585186336392182,8.205571170863937,4.931515226070961,6.471866171336149,2.8189773780219696,0.4558760756596669,0.0810629874060559,20.557020360471135,-1.0169697067127004,False,False,0,0.05,NORMAL_FLIGHT
540.0,0.0751396036691344,0.24778927058788747,9.732059957769748,-7.532670150951995,0.29952628398219194,-2.5518717151428367,50.197644095500934,37.774927000000005,-122.4194,4.845498278721568,-0.048877704491340684,-0.036240243368808,3,16.459170137542845,0,9.735503916299521,7.95882433832946,4.845744793020988,7.515878995366965,-6.121467470435249,-2.809516740366824,0.03381627695585897,17.531988283644065,-1.9679683379554547,False,False,1,0.9,RAPID_VOLTAGE_COLLAPSE
560.0,-0.120127737983761,0.04193188305492516,10.289561433628903,-9.827779457382526,-8.125606294412623,-17.046219581771158,50.12746328494734,37.774928,-122.4194,5.147951858139454,0.1673743753983425,-0.023187797506123264,3,16.474531326478534,0,10.290348072474172,21.288126473335,5.150672045011353,27.742207808732555,3.50904052767973,0.7680594467844415,0.08196206188824354,21.288126473335,-0.6874004295144687,False,False,0,0.05,NORMAL_FLIGHT
580.0,-0.05833874995865536,-0.09832723712640948,10.050638537585437,-2.9355763531007377,0.41455926586019964,-0.83133525721494,50.174926443661455,37.774929,-122.4194,5.2970433168294235,0.14663118029178596,-0.09600105221878283,3,16.466340342820214,0,10.051288806342457,3.0790560598474666,5.299072428586066,11.952963306585751,-2.3731579357058052,-0.4095491829160025,0.08319067272593317,21.288126473335,-0.678958510451011,False,False,0,0.05,NORMAL_FLIGHT
600.0,-0.12034132244587939,0.16142451932746207,10.068667053566093,-8.169614795296436,-2.0745813906016366,8.234231845623114,50.19649063450577,37.774930000000005,-122.4194,5.2235264883207915,0.06330665474972273,0.08460450088894077,3,16.46608246212451,0,10.070680023955456,11.783423438764766,5.223910097496371,0.9695608806499223,-1.0782095422158022,-0.012894034785126962,0.07992493215844043,21.288126473335,-0.6489634085310314,False,False,0,0.05,NORMAL_FLIGHT
620.0,0.37045563690178757,-0.19470923994089373,9.385131883262208,-2.1241567376281925,7.509764825942979,9.456334275676298,50.137783515881715,37.774931,-122.4194,5.100370409871978,-0.11789961729568957,-0.1741491656614096,3,16.497354983517802,0,9.394458448109477,12.260948883357763,5.101732905362267,33.81107879229894,2.935355931202821,1.5636260696645365,0.12166632653506433,21.288126473335,-0.6256876978948611,False,False,0,0.05,NORMAL_FLIGHT
640.0,-0.0026994449475867843,0.09527155387124386,9.46465387903414,2.5124984806464514,7.056784308728124,5.043650657184098,50.13156846893779,37.774932,-122.4194,5.217372697944367,-0.0672218872552405,0.09710883383822022,3,16.446547162289278,0,9.465133755309328,9.030463185622086,5.217805731471941,3.5337653599925467,0.310752347196086,-2.540391061426206,0.15966685286944476,21.288126473335,0.6607562656314059,False,False,1,0.9,RAPID_VOLTAGE_COLLAPSE
660.0,-0.2115421857911801,0.10109403183332538,8.958276402154372,-4.453744317761318,3.926728015051415,-5.412990949622398,50.12763082462556,37.774933000000004,-122.4194,4.6567004845712265,0.1255677525741101,-0.14036983847452425,3,16.481265361802716,0,8.961343995017572,8.034643885877882,4.658393141791749,25.189488014587802,0.19688221561153796,1.7359099756719232,0.22321675768564986,12.260948883357763,-0.0016753967822324967,False,False,0,0.05,NORMAL_FLIGHT
680.0,0.16450898242063783,0.21204198149977596,9.567185753675174,-7.134132883906712,-1.633068903306063,-19.768215689475905,50.19290996041609,37.774934,-122.4194,4.895633891702371,-0.0563066199795102,0.09626072740766523,3,16.485650304917506,0,9.570949182423895,21.07949519305018,4.895957683338206,30.480259370316176,-3.26395678952629,0.21924715573948816,0.1582335430857588,21.07949519305018,-0.17983516754632944,False,False,0,0.05,NORMAL_FLIGHT
700.0,-0.24416872999420447,0.5519320077822155,10.097010955915698,0.34668580857673986,9.926901976301467,-4.952150980047351,50.157244415402076,37.774935,-122.4194,4.817765987995031,0.11221417339195244,-0.035381752621218114,3,16.467392094086744,0,10.11503225668624,11.098980729154837,4.819072642717868,27.20415371311722,1.7832772507006212,-0.9129105415381034,0.17144846460182028,21.07949519305018,0.39246219103695523,False,False,0,0.05,NORMAL_FLIGHT
720.0,0.041772719000951086,0.07848319343575341,9.965083954724511,4.312717423075851,-7.7651763891991035,-3.043448710539514,50.14414716508086,37.774936000000004,-122.4194,5.244927746243035,0.0474603923034761,-0.12318686881330804,3,16.48724604888591,0,9.965480560234539,9.38935972153383,5.245142472054276,7.477584822585026,0.6548625160608168,0.9926977399583592,0.20613342276995814,21.07949519305018,-0.06363649199144561,False,False,0,0.05,NORMAL_FLIGHT
740.0,-0.3919340247759551,-0.10179272514149976,9.743546021114364,-8.474867192583064,-7.017793147818313,-3.1292896719001413,50.027343684829795,37.774937,-122.4194,4.923304396215222,0.0051717884813187315,0.05792986450796365,3,16.471487303944315,0,9.75195688588923,11.439634978798376,4.923307112621376,10.676183717265442,5.840174012553234,-0.7879372470798174,0.2010100528614803,21.07949519305018,1.042247841079984,False,False,0,0.05,NORMAL_FLIGHT
760.0,-0.26563720977968613,-0.005114862438398888,9.803309914884585,4.101161991529921,-0.41891549944532325,6.185563569779244,50.11408182448597,37.774938000000006,-122.4194,5.169081311356411,-0.07028328129354411,0.09287675350757749,3,16.49202644034408,0,9.806909532381326,7.4334525324525575,5.169559105285818,2.7476323246047762,-4.336906982808841,1.0269568199882784,0.04315042235013267,21.07949519305018,0.13549000139590817,False,False,0,0.05,NORMAL_FLIGHT
780.0,0.039372247173824704,-0.35381518097782366,9.603334337227379,4.086531018691631,11.270190544605596,19.856764110148397,50.06055841233497,37.774939,-122.4194,5.1071713884977274,-0.009424384352475161,-0.04380786481035369,3,16.436389310609837,0,9.609930579806926,23.194999711242158,5.10718008401018,9.848947628719973,2.676170607550077,-2.7818564867121864,0.038170082185297854,23.194999711242158,1.3235154808111815,False,False,1,0.9,RAPID_VOLTAGE_COLLAPSE
800.0,0.1476933159990821,-0.13894262621781164,9.871427664720535,4.77042551078314,-1.0116945343504378,1.2352920184109302,50.076903955546925,37.77494,-122.4194,4.827538612767264,0.018964795487489795,0.07206105486789331,3,16.45900748627561,0,9.873510141220347,5.0305498462409535,4.827575863849968,13.178978070671032,-0.8172771605977402,1.1309087832886533,0.017814423492173957,23.194999711242158,0.8034045985515093,False,False,0,0.05,NORMAL_FLIGHT
820.0,0.0342736562379941,-0.08185648762262081,10.039763483844185,6.092401074358432,-0.9162262160464096,-2.1673178915646165,50.07183356406083,37.774941000000005,-122.4194,4.8826083580047435,0.10325388983011217,-0.22850844946693505,3,16.463696303426122,0,10.040155675068437,6.531009736090629,4.883700005469503,8.332276692404506,0.25351957430466143,0.2344408575256196,0.025050183230723864,23.194999711242158,0.7231360102002782,False,False,0,0.05,NORMAL_FLIGHT
840.0,-0.023129656477648107,-0.10481767958691851,9.325233963776858,11.01006962329808,-7.209551780559046,-2.5922181300409255,50.066933515721665,37.774942,-122.4194,5.258763538162945,-0.08857356006337547,-0.13205962897466003,3,16.410837993381108,0,9.32585171478403,13.413383794559302,5.2595094092371735,35.715198014220384,0.2450024169583287,-2.642915502250709,0.07511279944107666,23.194999711242158,-0.3958983089187029,False,False,1,0.9,RAPID_VOLTAGE_COLLAPSE
860.0,-0.06022073911785776,0.0304709744067444,9.899894306351205,-1.780460243095276,4.729647926351892,1.243847669077142,50.10742661496521,37.774943,-122.4194,4.844903470263118,-0.026281684252611515,0.1292408930468729,3,16.441712661186358,0,9.900124357533404,5.20449471210763,4.8449747536075725,28.713632137468714,-2.024654962177408,1.5437333902625028,0.08037589181293377,23.194999711242158,0.06655209520758376,False,False,0,0.05,NORMAL_FLIGHT
880.0,-0.2957043980734855,-0.16448398647644014,10.0897304612864,0.5478579003892905,4.765881271646769,-8.28293760348399,50.190989737980395,37.774944000000005,-122.4194,5.024973522039096,0.004482313193228476,-0.022366927419791616,3,16.446309305558145,0,10.095402758397402,9.571876927628223,5.024975521166801,9.763920043199903,-4.178156150759094,0.2298322185893653,0.09353339123158037,13.413383794559302,-1.3043132564542503,False,False,0,0.05,NORMAL_FLIGHT
900.0,-0.14396884167894172,0.2242061334648943,9.685469913310989,-2.0821921662401275,3.94537600699955,1.2019855874605507,50.203564421477495,37.774945,-122.4194,4.843491742734711,0.06626783576861647,-0.18622133264488477,3,16.480694985329183,0,9.689134267792456,4.620204043786632,4.843945054188454,20.313424530247293,-0.6287341748549835,1.7192839885519007,0.09788919173396982,13.413383794559302,-1.266604659305699,False,False,0,0.05,NORMAL_FLIGHT
920.0,-0.09212775419195751,4.141298363941877e-05,10.020210183636175,0.009884223779053878,-3.146103364236812,4.508123363317998,50.23631832235902,37.774946,-122.4194,4.937209562616828,-0.09084643375227769,-0.06988661804419936,3,16.446743573293816,0,10.020633694984244,5.497384863299592,4.938045295430222,16.57497135958943,-1.6376950440761817,-1.6975706017683834,0.09572017160121896,13.413383794559302,-1.6448475829818676,False,False,1,0.9,RAPID_VOLTAGE_COLLAPSE
940.0,0.21142444524378315,-0.0018600642277228836,10.654396333341767,7.664366778181559,-3.5335338418650286,2.096860635744881,50.252762899195375,37.774947000000004,-122.4194,4.990767611206006,-0.13165697928872153,-0.09234004725250808,3,16.443668435261383,0,10.656494028704378,8.696275297380772,4.992503871731932,31.79301668600667,-0.8222288418178181,-0.1537569016216267,0.130236555293427,9.571876927628223,-1.858293834737097,False,False,0,0.05,NORMAL_FLIGHT
960.0,0.06872365791369228,-0.06557894330258357,9.778697162103933,-6.725072419653344,-6.465611252024852,4.575419340047812,50.3036394703919,37.774948,-122.4194,4.843426697940502,0.06739651517100496,-0.016596173147292472,3,16.47552930540802,0,9.779158538805946,10.390629915899037,4.843895588117071,43.86677449492158,-2.5438285598262667,1.5930435073318705,0.14358028214293483,10.390629915899037,-1.9621285542668687,False,False,0,0.05,NORMAL_FLIGHT
980.0,-0.3526080310725468,0.03103813677179583,9.927992115001597,-4.3052483608278775,0.4193625088046682,4.337476093485353,50.280493651417586,37.774949,-122.4194,4.8079106092032236,-0.15179491149467034,-0.03707509838076474,3,16.42597095166649,0,9.93430033897934,6.125742993609757,4.810306239860887,7.757090008669643,1.1572909487156835,-2.4779176870765696,0.14496599389884415,10.390629915899037,-0.8950391343719133,False,False,1,0.9,RAPID_VOLTAGE_COLLAPSE
1000.0,0.064816793878959,0.16501965293352694,9.588582874901583,6.885904682522806,-5.402036646392508,-17.718966822464438,50.33426317913841,37.774950000000004,-122.4194,5.057254667355489,0.12849797147621683,0.017893172893816083,3,16.416053858020813,0,9.590221804081434,19.76257747565718,5.058886883412434,17.20392674489526,-2.6884763860412164,-0.4958546822837917,0.16308551548114278,19.76257747565718,-1.3069875766091599,False,False,0,0.05,NORMAL_FLIGHT
1020.0,-0.07701645608326331,-0.17342604314218008,9.864375348780616,5.100182534510449,-5.887082526246443,6.3687015839540315,50.38978817242078,37.774951,-122.4194,4.831052518241765,-0.015592609748290798,-0.006946605161257471,3,16.449396468155694,0,9.866200339977812,10.061310174207941,4.8310776813759535,13.798926794818911,-2.776249664118424,1.66713050674403,0.16596580010575232,19.76257747565718,-1.5346985006176084,False,False,0,0.05,NORMAL_FLIGHT
1040.0,-0.13538440006119176,-0.13162329781505133,9.948081487494692,-1.81565823408539,-2.1184535845533796,-6.710148456624536,50.443915022854924,37.774952,-122.4194,4.837868488860265,-0.15475310822744465,0.13597392550370188,3,16.426823753582905,0,9.949873311260916,7.267086948898422,4.840342967188706,4.183648564155185,-2.706342521707228,-1.1286357286394377,0.021613528354876416,19.76257747565718,-1.9115212365954903,False,False,0,0.05,NORMAL_FLIGHT
1060.0,0.12233525776817358,-0.06074520575533293,9.868452702081042,4.272010005603599,-2.4457808759210806,-10.958391630039579,50.4109076294881,37.774953000000004,-122.4194,4.812189371259606,-0.04804202194034943,0.04245485997196691,3,16.426733877838675,0,9.869397885814822,12.013253543412794,4.812429176698192,4.02377127230471,1.6503696683411562,-0.004493787211501399,0.021221141098070908,19.76257747565718,-1.0726815909620058,False,False,0,0.05,NORMAL_FLIGHT
1080.0,0.2061999044991902,-0.269174184694643,9.504091404087344,1.7060792124601663,-2.6898926441097752,-11.044518278549962,50.40249074777624,37.774954,-122.4194,4.984418390733737,0.03791236330692372,0.04576716111935861,3,16.46554571435302,0,9.510138093611914,11.49467758230951,4.984562572701461,17.962989610145375,0.42084408559297515,1.9405918257172416,0.03762843559658312,19.76257747565718,-1.2199709635865474,False,False,0,0.05,NORMAL_FLIGHT
1100.0,0.18625602382323972,-0.16385157194429956,9.871908531397636,7.501373045004939,2.3322229842013065,4.335416104725293,50.41446409721526,37.774955000000006,-122.4194,5.188740326879969,-0.05327010875549777,0.11651571238945219,3,16.470746090064907,0,9.875024895984845,8.972496553884818,5.189013767979159,18.24434011864655,-0.5986674719508756,0.26001878559434033,0.030077843379627964,12.013253543412794,-0.8020091807684793,False,False,0,0.05,NORMAL_FLIGHT
1120.0,-0.1678435046445277,-0.09524417470893182,10.248658781615292,0.3725479691338631,0.3952390107513961,-2.2257492722485295,50.34592199497381,37.774956,-122.4194,5.301305727262453,0.0020029748824347505,-0.03887687504295818,3,16.46815347241109,0,10.250475584910566,2.2910621309428443,5.301306105651141,18.772534446286038,3.4271051120725815,-0.12963088269088985,0.06961660208013043,12.013253543412794,0.4386617744697219,False,False,0,0.05,NORMAL_FLIGHT
1140.0,-0.06184247517024292,0.1748778361425455,9.944590729354358,5.128160569362912,-1.4407801525555883,-16.819687839854108,50.425668005378114,37.774957,-122.4194,4.8548163828012445,0.07400783657052866,-0.12618774433584853,3,16.473701296087587,0,9.946320501756905,17.643009304064396,4.855380445504679,15.207754157683073,-3.987300520215342,0.27739118382488215,0.06951451168487685,17.643009304064396,0.182470174768099,False,False,0,0.05,NORMAL_FLIGHT
1160.0,0.06625268628071279,0.052512265800385,10.098596156721554,13.2100595524631,0.9150646415574103,4.780378151922834,50.425054178703,37.774958000000005,-122.4194,5.430062158666242,-0.02021903353876196,0.12069703246322493,3,16.47549802406913,0,10.09895000943416,14.078175732431792,5.430099801688394,7.631475383862796,0.03069133375568356,0.08983639907711449,0.07765756829268665,17.643009304064396,-0.1414654921489955,False,False,0,0.05,NORMAL_FLIGHT
1180.0,0.19510902542447184,0.03871798227350887,9.738896408996212,2.9904957752373313,-4.957635205523161,-14.396081307988274,50.439250573083235,37.774959,-122.4194,4.7990590278586405,-0.09370576764661337,0.013584174810811249,3,16.40725310827969,0,9.740927567696659,15.516712565455492,4.79997378365359,17.901122086875088,-0.7098197190117617,-3.412245789471946,0.03914712111730965,17.643009304064396,-0.36759825306994287,False,False,1,0.9,RAPID_VOLTAGE_COLLAPSE
1200.0,-0.095834847569058,0.17017959243359446,10.034970071827114,0.2466408289742181,0.5263931195483897,1.3982135851821087,50.410400351096875,37.77496,-122.4194,5.216709704665574,-0.0298983997371841,0.013935120789892844,3,16.45798272644221,0,10.036870515960407,1.5142399560877995,5.216795381942713,14.797147413187428,1.4425110993180112,2.5364809081260375,0.035701705596606036,17.643009304064396,0.04063746118383449,False,False,0,0.05,NORMAL_FLIGHT
1220.0,-0.03713179533276342,-0.02747435767987933,9.893780351464958,3.6122349261048967,0.7530124642231689,2.3849892567305413,50.344056473128525,37.774961000000005,-122.4194,4.855660709196911,0.141484013645926,-0.06333299215302364,3,16.437531898039627,0,9.89388817672752,4.39356833193335,4.857721549137621,7.149116961644353,3.317193898417514,-1.0225414201292082,0.019096894558061583,17.643009304064396,0.018655218452821032,False,False,0,0.05,NORMAL_FLIGHT
1240.0,-0.22126699480120565,0.07809296998577792,9.52472678109383,-1.8264042910194245,-7.515234296787403,8.855770816950448,50.313854978854785,37.774962,-122.4194,4.825815346025998,0.1685064345333184,-0.06168553331035775,3,16.4323251518986,0,9.527616588078867,11.757515721112817,4.828756379485214,18.313579432432636,1.510074713687004,-0.2603373070513726,0.053546265275118,15.516712565455492,1.1181302652332903,False,False,0,0.05,NORMAL_FLIGHT
1260.0,-0.23924132481613417,-0.020644350586499247,9.905556301439663,11.93983852762366,4.97846877185181,17.816847864668514,50.32481518823647,37.774963,-122.4194,4.851048768643122,-0.20199261739422752,0.08467223387708436,3,16.457631504249978,0,9.908466492939356,22.017832845463538,4.855252328482601,19.042495243024415,-0.5480104690843035,1.2653176175689396,0.038011760077473054,22.017832845463538,1.0023899046652929,False,False,0,0.05,NORMAL_FLIGHT
1280.0,0.16250516447883961,0.05307246987992569,9.512491000967907,0.9003551884799075,-4.407168526134978,-13.646763259005416,50.358486628874154,37.774964000000004,-122.4194,4.989510460070176,0.10910279091914771,0.09846557981376103,3,16.410966876795282,0,9.51402699486589,14.368991660186792,4.990703161893727,19.721974903673267,-1.6835720318841396,-2.333231372734801,0.0574556109615163,22.017832845463538,0.8076394420908173,False,False,1,0.9,RAPID_VOLTAGE_COLLAPSE
1300.0,0.2712480057141646,-0.11655173152231642,9.620135917534563,-1.3646666011275643,0.4515489960321748,-0.5247385606304944,50.36657620590429,37.774965,-122.4194,5.115994434206722,0.025014771603535626,0.07838234057466585,3,16.409700189063145,0,9.624664921884987,1.5302163196957765,5.1160555889896795,5.531896350954835,-0.4044788515066955,-0.06333438660686141,0.037707969441355835,22.017832845463538,0.43824145192587594,False,False,0,0.05,NORMAL_FLIGHT
1320.0,-0.01440202431606677,-0.48776343165528585,9.866798492187712,-4.178445025100181,5.822058702676351,-2.763352950442173,50.383912406716384,37.774966,-122.4194,5.133973607580964,0.09239826791201501,0.07929616054454751,3,16.456543390849617,0,9.878857882822398,7.6806178067855555,5.134805005377618,12.709648046870559,-0.866810040604804,2.3421600893236416,0.03624895307812234,22.017832845463538,-0.3985593358785877,False,False,0,0.05,NORMAL_FLIGHT
1340.0,0.20070657957840485,-0.02685583243726083,9.899173282014038,5.486100958032192,4.628383788569347,4.337496859609622,50.367061087982314,37.774967000000004,-122.4194,4.811202996930422,-0.055048826026762955,0.0569029537259759,3,16.452777231105596,0,9.901244165970382,8.38648431842191,4.811517915473162,1.1193141573992094,0.8425659367034655,-0.188307987201064,0.03369727158979391,22.017832845463538,-0.5320610912752954,False,False,0,0.05,NORMAL_FLIGHT
1360.0,0.07232720500952683,0.28454962721998805,9.453230260476861,4.335937064138694,0.17166694284417738,2.156687709336186,50.39187351629459,37.774968,-122.4194,4.802068142497746,-0.17682635095014862,0.013152273007815657,3,16.4449057386602,0,9.457788434540653,4.845732311946143,4.805322674241772,22.17278657148647,-1.2406214156136741,-0.39357462226981,0.042092687716631515,14.368991660186792,-0.6705832805811696,False,False,0,0.05,NORMAL_FLIGHT
1380.0,-0.12902395092102487,0.1852430804483185,10.126195731354864,-2.486771857070466,-1.8124950144103427,-3.5254624273661994,50.46601515961388,37.774969000000006,-122.4194,4.816672261327291,0.05844887886474618,-0.01753796843209806,3,16.423722392235703,0,10.128711772405941,4.679536063879711,4.817026878114788,33.54616689326439,-3.7070821659646924,-1.059167321224841,0.0680890672147351,8.38648431842191,-1.0752853073972801,False,False,0,0.05,NORMAL_FLIGHT
1400.0,0.07227912110168279,0.19307949691823414,9.981601883490143,2.8822567256121134,4.737559542877836,-4.409021886108555,50.50125463173583,37.77497,-122.4194,4.977729119522897,-0.0940977261282717,0.12103238499415532,3,16.4553468278092,0,9.983730771809274,7.084585255809499,4.978618439829338,7.249050029833359,-1.7619736060975555,1.5812217786749017,0.06270987053750474,8.38648431842191,-1.3467842583154521,False,False,0,0.05,NORMAL_FLIGHT
1420.0,0.30760731329319385,0.24722614436124357,9.598581469316736,-7.542779841064283,3.3734748890430994,-11.164508551840475,50.54173172614848,37.774971,-122.4194,4.957968879161825,-0.13882924314848524,-0.037372087049043365,3,16.453225867746163,0,9.606690858394362,13.889568451247476,4.95991219332463,18.85199567074558,-2.023854720632201,-0.1060480031519262,0.0763285004811522,13.889568451247476,-1.5781931943209315,False,False,0,0.05,NORMAL_FLIGHT
1440.0,-0.007165207821990308,0.01773151819228749,9.348724561065248,0.9248528753657813,-3.0918251002206496,9.878615824065092,50.55643254611381,37.774972000000005,-122.4194,4.809964907586041,-0.13184013824734664,0.036997921388074693,3,16.440475474993296,0,9.348744122373077,10.392390768773854,4.81177142373391,12.897336801064263,-0.7350409982667117,-0.6375196376433578,0.1137297290730504,13.889568451247476,-1.893714581314967,False,False,0,0.05,NORMAL_FLIGHT
1460.0,0.3129287311628013,0.039463141481119124,9.766528626275571,2.2637817603834725,-3.974468235008452,4.592041815995293,50.48127479263383,37.774973,-122.4194,5.053920738812649,0.06009137824153345,-0.08040129979542465,3,16.414372538654344,0,9.771620292366201,6.481354306746812,5.054277970980579,21.143808499656203,3.7578876739988942,-1.3051468169475555,0.09461548370681858,13.889568451247476,-0.8940127633924533,False,False,0,0.05,NORMAL_FLIGHT
1480.0,-0.5239490208179489,-0.12353037908687003,9.676216885841653,8.536649047796114,-10.361775908479991,9.177681977951373,50.42904146610227,37.774974,-122.4194,5.452513761667063,0.013945246602919717,-0.06592990368504505,3,16.428563567352544,0,9.691179265333016,16.26255279564706,5.45253159468806,4.02205135165925,2.611666326578188,0.709551434909983,0.05396888747674213,16.26255279564706,0.3697369351161228,False,False,0,0.05,NORMAL_FLIGHT
1500.0,0.16438050087504477,-0.06321457120540995,9.843942137115908,-3.854094013643447,0.7701592084179371,-3.1039613647551367,50.45178525613546,37.774975000000005,-122.4194,4.8990569076329695,0.07824660218746737,-0.02361545678572265,3,16.452974782605015,0,9.845517448563418,5.008169528500984,4.899681736090641,7.716909161520125,-1.1371895016594635,1.2205607626235349,0.0368268155558255,16.26255279564706,0.4946937560037412,False,False,0,0.05,NORMAL_FLIGHT
1520.0,0.017409413647634247,0.12315422995422831,9.70106500165333,-6.391763144011621,-0.4134887250919934,-6.568354686944304,50.45123830353746,37.774976,-122.4194,4.913297635759293,0.06690752544963649,-0.08039383767271636,3,16.461911508297955,0,9.701862306709073,9.174360593982925,4.913753175986728,7.182757092717296,0.02734762990002082,0.4468362846470342,0.0364465599524658,16.26255279564706,0.9049342261101856,False,False,0,0.05,NORMAL_FLIGHT
1540.0,-0.05980147009317349,0.24077688743376324,9.207762941776497,-4.477139804625208,5.680956873212711,-10.78315066629228,50.4732304478611,37.774977,-122.4194,5.111932314064874,-0.042093356458376585,0.07978518254783004,3,16.427986526561785,0,9.211104608965211,12.984390248195016,5.112105616498801,24.537884887193062,-1.099607216182008,-1.6962490868085212,0.0624670601505684,16.26255279564706,0.8320209825271263,False,False,1,0.9,RAPID_VOLTAGE_COLLAPSE
1560.0,0.01835215530710046,-0.02788925513619991,9.693495918509653,-6.6828425015746,1.7952754674018334,3.589175837406595,50.557051618753306,37.774978000000004,-122.4194,4.888236741652641,-0.007047357387745573,-0.13480342515450294,3,16.428673374060544,0,9.693553411124311,7.795228097787136,4.888241821727826,24.12244010795499,-4.191058544610371,0.03434237493795678,0.058714511813969215,16.26255279564706,-0.7577682611947267,False,False,0,0.05,NORMAL_FLIGHT
1580.0,-0.3975137829201786,-0.09003785297028233,9.718314266679506,6.6832867887949154,6.671145970863453,-10.397932245282346,50.59335341871477,37.774979,-122.4194,5.133792896343636,-0.051143752878253956,0.009922962338107293,3,16.4295826260436,0,9.726857468294961,14.045907085102433,5.134047641579386,1.6652028585324885,-1.815089998073205,0.04546259915283457,0.06008468214997143,14.045907085102433,-1.6431195261250053,False,False,0,0.05,NORMAL_FLIGHT
1600.0,-0.04393437756750239,0.00010559177131945857,10.000098307432218,7.743196475120183,-3.486821139580854,18.486630689665503,50.65629772900191,37.77498,-122.4194,4.856291458644192,-0.021032777286549082,0.013250809684218122,3,16.437463843169716,0,10.000194818051826,20.34380808914162,4.8563370052974,13.666867487843248,-3.147215514357171,0.3940608563057779,0.08109059185970441,20.34380808914162,-2.045124728664547,False,False,0,0.05,NORMAL_FLIGHT
1620.0,0.07142251430234929,0.12024134978582297,9.600540097616685,1.6010828897441445,5.690751654838092,-13.076425810934404,50.66103179847545,37.774981000000004,-122.4194,5.3664239215154605,-0.0967254737981066,-0.1810799578319681,3,16.41949421177769,0,9.601558692404758,14.350645727832092,5.367295550153246,19.93180628235338,-0.23670347367676925,-0.8984815696013726,0.08134002997920073,20.34380808914162,-2.097934949379905,False,False,0,0.05,NORMAL_FLIGHT
1640.0,0.29557880894830324,-0.28877096322670837,10.313602402011771,6.106474728425741,-2.6445818955232756,2.736601192125019,50.62067101460122,37.774982,-122.4194,5.068954994518459,0.03904842938743351,-0.044102382052360875,3,16.37238143141485,0,10.321877252141936,7.195264630002971,5.069105396052765,36.015927986858905,2.018039193711374,-2.3556390181418863,0.08620513999429227,20.34380808914162,-1.4744056674012285,False,False,1,0.9,RAPID_VOLTAGE_COLLAPSE
1660.0,-0.10365404365472948,-0.45923619062744764,9.236507834804474,0.6697919029011766,3.8879803089613607,15.668547072137862,50.61777770664051,37.774983,-122.4194,4.875995410184657,0.10751207489817566,0.025569953804814274,3,16.453270087386617,0,9.248498203597837,16.157610572973446,4.877180546831412,53.66895242720497,0.14466539803557055,4.044432798588282,0.16481902433345536,20.34380808914162,-0.6072608788720402,False,False,0,0.05,NORMAL_FLIGHT
1680.0,-0.16169872057863754,-0.11010736989831671,10.203350249340788,-0.47555823850383006,-7.293791962653468,5.99089759263809,50.57754011595455,37.774984,-122.4194,4.8822616601061455,-0.08166130298209867,0.04287279932940682,3,16.464458061084322,0,10.205225446792708,9.450735992405779,4.882944550795877,47.83636215974356,2.011879534298089,0.5593986848852595,0.1979238519002086,20.34380808914162,0.1581330276022186,False,False,0,0.05,NORMAL_FLIGHT
1700.0,-0.10035140871690731,-0.24414248518283174,9.742704308736569,-1.6651880952688083,1.1756764968309426,1.7567371249177932,50.655454863793175,37.774985,-122.4194,4.897240049458393,0.12812696454013425,-0.020430720860016585,3,16.415465859736347,0,9.74627945452914,2.69094629152833,4.8989158618067234,22.94729961317845,-3.89573739193132,-2.449610067398744,0.19498379256138812,16.157610572973446,0.008428652087388855,False,False,1,0.9,RAPID_VOLTAGE_COLLAPSE
1720.0,0.18308042354041484,-0.10162803952946219,10.067875461703068,-1.5519549568878275,-9.92343970722955,-9.684836469618956,50.694974417619946,37.774986000000006,-122.4194,5.274549933249775,0.011352149647794171,0.06768882044807155,3,16.405530364337483,0,10.070052781006915,13.952751601547638,5.2745621495671875,16.18866632388878,-1.9759776913385707,-0.4967747699431868,0.18661379850322635,16.157610572973446,-0.33942619144497144,False,False,0,0.05,NORMAL_FLIGHT
1740.0,0.0657502219319369,-0.029556063763494306,9.833940445217621,-7.739007781545157,-1.3356874297087735,-13.81769188567704,50.72100004245136,37.774987,-122.4194,4.746249798479743,0.024107897640581327,-0.010931625723604082,3,16.423270996055447,0,9.834204661927483,15.89354936444983,4.746311024395436,11.792405953971574,-1.3012812415706065,0.887031585898157,0.13579305055705823,16.157610572973446,-1.0032902785013675,False,False,0,0.05,NORMAL_FLIGHT
1760.0,-0.10595204075340776,-0.09064968180460269,10.151866660807642,1.3212738180366954,2.201769969389568,7.700501089175859,50.78279720256277,37.774988,-122.4194,4.866411665908099,-0.16994295196075182,0.0013652912075056728,3,16.42141250361607,0,10.152824232624575,8.117343932884303,4.869378102900572,15.930978534854567,-3.089858005570534,-0.09292462196874851,0.04055689641886537,15.89354936444983,-1.6501949592225884,False,False,0,0.05,NORMAL_FLIGHT
1780.0,0.10265348662267122,0.2904935068941491,9.693791410634157,-0.20166955107021878,-2.6048427561554788,15.061472407749466,50.6817943818366,37.774989000000005,-122.4194,4.8876678886149145,-0.18072623095657342,0.02516538689865537,3,16.444222527621296,0,9.69868630943119,15.28639354071205,4.891008010620423,22.70689615966921,5.0501410363082755,1.1405012002612125,0.040330859287762005,15.89354936444983,-1.042542658820551,False,False,0,0.05,NORMAL_FLIGHT
1800.0,0.019415509869608077,0.06534895292046401,9.480413872446658,3.726803620389379,-5.252188143779836,-4.388499904781715,50.71120127940374,37.77499,-122.4194,4.996862406648613,0.014411636277968194,0.09269996287341688,3,16.424554519698333,0,9.4806589771255,7.79316860698381,4.9968831891728644,10.901366615284491,-1.4703448783567552,-0.9834003961481486,0.0749117534146065,15.89354936444983,-0.5574641561056382,False,False,0,0.05,NORMAL_FLIGHT
1820.0,0.19372899810657784,0.06009487192216567,10.23615128618132,0.4676174821930485,4.230592346479669,-11.39061507616351,50.64566899018852,37.774991,-122.4194,4.945778061470641,0.07897321246320077,-0.0675718002415532,3,16.406758849045403,0,10.238160746536959,12.159880325277397,4.946408535656052,37.875088470572926,3.276614460760996,-0.8897835326465042,0.09928829727016619,15.89354936444983,0.4930542743142752,False,False,0,0.05,NORMAL_FLIGHT
1840.0,-0.14041061877547048,0.1244414288086804,9.775955806235357,-0.8135185078454589,-0.5173139492346173,-24.581694305490185,50.645306205265236,37.774992000000005,-122.4194,4.7017544337219075,-0.06713804436449525,-0.04868218725182975,3,16.39539269142906,0,9.777756017437522,24.60059188339273,4.702233753443644,23.020236454971865,0.018139246164139422,-0.5683078808171871,0.10124372859403978,24.60059188339273,0.7569383718612244,False,False,0,0.05,NORMAL_FLIGHT
1860.0,-0.06553242931955365,-0.22776662355615385,9.876467542087264,-4.355965150038154,-2.447853235153358,-9.807648436625376,50.629720825641876,37.774993,-122.4194,4.9200354632809065,0.16700939005830895,-0.06688964917292148,3,16.438223138924005,0,9.879310868881591,11.007106145833149,4.922869193499804,5.077742572203459,0.779268981168002,2.1415223747473178,0.07747519430352114,24.60059188339273,1.5307637692089315,False,False,0,0.05,NORMAL_FLIGHT
1880.0,-0.07842163062643154,0.20782235748405375,10.180425574213439,0.3607661841088066,0.20947960577138242,-1.136568424990402,50.66280765624672,37.774994,-122.4194,4.980089863363006,0.07349359742543154,-0.03321977161419334,3,16.432050254838295,0,10.182848567887051,1.2107112494380012,4.980632124141824,15.176884950273006,-1.6543415302422204,-0.3086442042855353,0.0962211408787359,24.60059188339273,0.18986725589883235,False,False,0,0.05,NORMAL_FLIGHT
1900.0,-0.2927029896264237,-0.015152857307091977,9.50041342737167,3.69118615408081,13.183345709727943,15.991232408367342,50.67421702069477,37.774995000000004,-122.4194,4.874380432984044,-0.09083412517079853,0.14262342580797646,3,16.440420802364237,0,9.504933452697328,21.051008841969974,4.8752267069084345,33.89575575948616,-0.5704682224024538,0.41852737629710646,0.09110677263953945,24.60059188339273,0.36984258708969264,False,False,0,0.05,NORMAL_FLIGHT
1920.0,0.059224055412915214,0.1340961234482425,9.988647269291778,-5.716694955419303,5.76751424890772,6.731336922329685,50.74147287937536,37.774996,-122.4194,5.137355097809533,0.0030848667053507126,0.05727253193298222,3,16.398995444575373,0,9.989722895525857,10.547782638383717,5.1373560240061416,24.239472141426432,-3.362792934029457,-2.0712678894431846,0.06350735521095938,24.60059188339273,-0.958038891868398,False,False,1,0.9,RAPID_VOLTAGE_COLLAPSE
1940.0,0.05221105443597787,-0.2143714466080311,9.633031573061134,0.4373687684036962,5.812868340939201,3.05085404706753,50.71137802132873,37.774997,-122.4194,5.1838816857507295,0.24769291337234123,-0.1131089745168842,3,16.454277492367755,0,9.635558022186302,6.579395124567042,5.189795864116112,17.70824366697772,1.5047429023315573,2.764102389619083,0.07389047800235081,21.051008841969974,-0.6607181606349144,False,False,0,0.05,NORMAL_FLIGHT
1960.0,0.001022691328492178,-0.3107517532032129,9.77034919330669,1.1652147576474197,2.17773159496182,-4.0011966130113095,50.746833740810395,37.774998000000004,-122.4194,4.984322660054121,-0.12425640027997056,-0.06004469655886746,3,16.381784439023438,0,9.775289819599474,4.702107470816406,4.985871241071066,6.986589870658566,-1.7727859740833907,-3.624652667215855,0.07393064636853838,21.051008841969974,-1.171129151685193,False,False,1,0.9,RAPID_VOLTAGE_COLLAPSE
1980.0,-0.046917426675029385,0.16357793160500575,9.831683689615287,-3.590323918091322,0.8324263628857353,-5.831657172559563,50.754944901655335,37.774999,-122.4194,5.0461083173701455,0.05282699389151055,0.03727672242764021,3,16.429999924380006,0,9.833156317138524,6.898665440845148,5.046384828955851,2.89332487695253,-0.40555804224702285,2.4107742678284083,0.03453761919196666,21.051008841969974,-0.9213724540861534,False,False,0,0.05,NORMAL_FLIGHT
2000.0,-0.2830741484100829,0.07528190521950333,9.35993344156592,-2.939281524540001,-11.98041144165208,14.056475975079636,50.673180388151756,37.775000000000006,-122.4194,4.5677888005301455,-0.03227445527233424,-0.09065077809327704,3,16.376765823395434,0,9.364515597151602,18.701715189515674,4.567902819315638,23.432035999346112,4.088225675178947,-2.66170504922858,0.055527686815364796,18.701715189515674,0.010366325430126722,False,False,1,0.9,RAPID_VOLTAGE_COLLAPSE
2020.0,-0.08412906455307181,-0.18041031087150208,9.57634888715387,1.1530542438310722,-3.3949017323156605,2.007385407583895,50.627249565225604,37.775001,-122.4194,4.915779445567634,0.07068962909185121,-0.07253400408147569,3,16.398300425892792,0,9.57841759312385,4.109073865955378,4.91628768290937,10.695099798612429,2.296541146307618,1.0767301248678862,0.03382058794622725,18.701715189515674,1.1422331414975417,False,False,0,0.05,NORMAL_FLIGHT
2040.0,-0.0685429033053539,-0.1739326162549389,10.215321867723942,-5.667105091463115,-2.402872066012373,-21.02600691921022,50.6197556635495,37.775002,-122.4194,5.200964338351582,0.12672736463183817,0.1344959666174149,3,16.44447708692312,0,10.217032423643852,21.908510703605252,5.202508036875238,31.930741526000084,0.3746950838053209,2.3088330515163236,0.10091119536660675,21.908510703605252,0.9162235777922945,False,False,0,0.05,NORMAL_FLIGHT
2060.0,-0.1604554538443238,0.22508695688295388,10.075857356575439,1.7496185762469627,-9.374460320237665,-6.7353964789724285,50.675370286044085,37.775003000000005,-122.4194,4.915312683364144,-0.038623708871136746,-0.06133756284731867,3,16.42903348819107,0,10.079648384784193,11.675069044207538,4.9154644303592905,6.869201942982972,-2.7807311247293853,-0.7721799366024129,0.12272623180914426,21.908510703605252,0.7146345476630955,False,False,0,0.05,NORMAL_FLIGHT
2080.0,-0.03225714233320183,-0.23788237857346559,9.79120812680183,-4.476771868296,-5.787078951077168,-8.582160317716268,50.69855643892194,37.775004,-122.4194,4.852547664721608,0.11189122717071738,0.09546668160293868,3,16.4006313695792,0,9.794150556920059,11.277643586572093,4.8538375008968835,14.274891393206701,-1.1593076438927596,-1.4201059305934294,0.12266772414624773,21.908510703605252,0.5638846273339482,False,False,0,0.05,NORMAL_FLIGHT
2100.0,0.08081017136290769,0.3285345906511927,9.882937037553868,5.314268465166082,-9.90418235461317,-5.462640091774649,50.6401813977279,37.775005,-122.4194,5.455537785206186,0.2221203394271961,0.12553231895309386,3,16.400328611819905,0,9.888726396725923,12.49698820538586,5.460057689347217,4.728791990293235,2.918752059702001,-0.015137887964833396,0.06171432864459383,21.908510703605252,0.329989904238559,False,False,0,0.05,NORMAL_FLIGHT
2120.0,0.37723718024210606,-0.18012414692957376,9.721727248309064,11.689138726941499,-0.19161917848686247,5.629106602850852,50.633165586325546,37.775006000000005,-122.4194,5.363815438039161,0.006627473734423479,-0.07334620911689643,3,16.411867369680444,0,9.730710831639128,12.975342894640841,5.363819532455891,7.900778254339791,0.3507905701177094,0.5769378930269298,0.04098263618801844,21.908510703605252,-0.0591602109994227,False,False,0,0.05,NORMAL_FLIGHT
2140.0,0.03491556256636779,0.1276783851216766,10.216975015748394,-4.303784008509099,4.09382985424408,-1.074448817942494,50.7340559087652,37.775007,-122.4194,5.093514982496432,0.07848886874941853,-0.08899625565571415,3,16.41928732206634,0,10.21783241881386,6.036260425940615,5.094119686406395,24.356079358736604,-5.044516121982667,0.37099761929475505,0.04109275500436088,12.975342894640841,-1.1430024521570203,False,False,0,0.05,NORMAL_FLIGHT
2160.0,0.05151007814455288,-0.06572369514979692,9.749894226661752,2.6710393118733733,5.533872593121644,-0.7686540700366202,50.73961707550724,37.775008,-122.4194,5.227782122296009,-0.05904407702032749,-0.027613208648116512,3,16.433185664692175,0,9.75025180820202,6.1926590380756235,5.228115542069528,23.379030530592004,-0.2780583371020384,0.6949171312918168,0.04015792152917236,12.975342894640841,-0.642467894631551,False,False,0,0.05,NORMAL_FLIGHT
2180.0,-0.014889183153233444,0.12063748621646862,9.879552627640455,-3.6337095244100963,2.0739223103962057,13.134731613252367,50.72325079675362,37.775009000000004,-122.4194,4.554812916408385,0.0019259309031212418,-0.1088627720673625,3,16.398178971733742,0,9.880300360473512,13.784998121491308,4.554813323583141,6.502427613574646,0.8183139376811255,-1.7503346479216475,0.03810221818535665,13.784998121491308,-0.24694357831677394,False,False,1,0.9,RAPID_VOLTAGE_COLLAPSE
2200.0,-0.3837542430598083,-0.10882280042283853,10.153809043242621,5.204770868988947,-4.816981705992845,-6.964610897866884,50.74783777879143,37.77501,-122.4194,4.842489711874259,-0.017667509270824257,0.01210338785027424,3,16.37421752534356,0,10.16164099973985,9.939756411161788,4.842521941147182,14.06703196331689,-1.22934910189052,-1.1980723195090803,0.05233851844714446,13.784998121491308,-1.0765638106352782,False,False,0,0.05,NORMAL_FLIGHT
2220.0,-0.005302775089843376,-0.03255858121445884,9.576788554546228,-6.326292045426075,-9.660325792599798,18.641995258873497,50.78600743277053,37.775011,-122.4194,4.9060084253653695,0.07969359256585958,-0.020565191185338647,3,16.408742173941675,0,9.5768453678193,21.928699293278935,4.906655657212155,29.23978159602747,-1.9084826989551829,1.7262324299057497,0.07380141491795285,21.928699293278935,-1.5284184644498566,False,False,0,0.05,NORMAL_FLIGHT
2240.0,0.012046041988205289,0.008183835079144226,10.277636755349068,2.402933792138563,-8.784343497007509,-6.713075913710861,50.76319901539653,37.775012000000004,-122.4194,4.95280398022661,0.12046759357569255,0.03605800158863016,3,16.395603759437925,0,10.277647073001987,11.313892774198651,4.9542688368366194,35.04008525913429,1.140420868700076,-0.6569207251875042,0.083502875986123,21.928699293278935,-0.29143106631330795,False,False,0,0.05,NORMAL_FLIGHT
2260.0,0.49264842249705726,-0.20043749115629456,9.350861577076987,-4.364944834446764,-6.344912886272493,0.8919819661257138,50.7883277541151,37.775013,-122.4194,4.9020111958052075,-0.010965484911745937,0.13969434562328212,3,16.37788927688052,0,9.36597511686341,7.75282495417275,4.902023460333391,45.58359780692882,-1.256436935928562,-0.8857241278702688,0.14744574698483354,21.928699293278935,-0.4871067860786127,False,False,0,0.05,NORMAL_FLIGHT
2280.0,-0.038472192956224505,0.14816486908402518,10.29889263933384,-1.0349229454918438,-4.444298490178373,-2.812035954027669,50.77188327928156,37.775014000000006,-122.4194,4.489994741696731,0.15336228457329235,0.08174849807703193,3,16.409004904069135,0,10.300030220081215,5.360074699073847,4.49261313388921,46.70275516089024,0.8222237416770639,1.5557813594307746,0.18851852168117367,21.928699293278935,-0.486324825279425,False,False,0,0.05,NORMAL_FLIGHT
2300.0,0.0603094684667225,-0.10264271329431705,9.698197324814409,-5.155126375736535,-0.7987424899579332,1.2341913350096105,50.80784965937303,37.775015,-122.4194,5.077204923741712,0.15300474415616291,0.048923977541235626,3,16.39793882546842,0,9.698927987649796,5.360647886822218,5.079509847357457,30.05511162157095,-1.7983190045736563,-0.5533039300358311,0.17923463869053527,21.928699293278935,-0.6001188058160523,False,False,0,0.05,NORMAL_FLIGHT
2320.0,-0.006942353941048663,-0.04571998306800372,9.737190375652416,4.111752354478768,-5.070821090634841,4.445919950731289,50.8163343172716,37.775016,-122.4194,5.108730825656122,0.08468537431799009,-0.19660484129679182,3,16.407480919467062,0,9.737300186644552,7.898476952305383,5.10943267512475,1.9186099497377818,-0.42423289492816707,0.47710469993216265,0.16295987828556172,11.313892774198651,-0.3032688450106491,False,False,0,0.05,NORMAL_FLIGHT
2340.0,-0.23373560752390643,-0.19886987492170247,9.242996948645118,-4.184901772197935,1.6948794683413073,4.338352400888765,50.84043270862424,37.775017000000005,-122.4194,5.320379758317996,-0.05160265317217283,0.04433759821023752,3,16.38261136612132,0,9.24809029767978,6.261574946405069,5.320630000905369,24.460494448238546,-1.2049195676322455,-1.243477667287074,0.16818578182879382,7.898476952305383,-0.7723369322771134,False,False,0,0.05,NORMAL_FLIGHT
2360.0,0.22856456290300411,-0.5124667317590621,9.673561584786693,2.759821296659138,-1.161367513997364,-7.531173306205799,50.80247353131586,37.775018,-122.4194,4.842338147045007,-0.061182881673990275,0.17226276607045493,3,16.409384035518965,0,9.689822374287141,8.104564112903823,4.842724654090629,22.086603830368023,1.8979588654190138,1.338633469882211,0.13992189229776256,8.104564112903823,-0.14145777200759824,False,False,0,0.05,NORMAL_FLIGHT
2380.0,0.15038660653735483,-0.038205552520033804,9.498058040691935,-1.7204901413116647,0.052728558705128,-11.229146774475707,50.76140921211222,37.775019,-122.4194,4.82596736844402,-0.08123813546900388,-0.3010522516313517,3,16.37245743576475,0,9.49932536236242,11.360308266502804,4.826651082887697,9.524850596236067,2.0532159601820865,-1.846329987710682,0.041869952023556985,11.360308266502804,0.10474067169340628,False,False,1,0.9,RAPID_VOLTAGE_COLLAPSE
2400.0,0.1582063894086094,0.4825230843225832,9.627706096387959,-0.5723618589943147,5.701252763356024,25.031717909057107,50.80868407734519,37.775020000000005,-122.4194,4.464003102807106,0.0949166070238161,0.06893825429756253,3,16.381394346693313,0,9.64108824080455,25.67915073844765,4.465012078837008,7.088143922106482,-2.3637432616485654,0.4468455464280652,0.03894618615973726,25.67915073844765,-0.008344179721575529,False,False,0,0.05,NORMAL_FLIGHT
2420.0,-0.18187749095894779,0.15692085757960478,9.768806710263336,0.7387795370006427,-5.90115867100185,-4.839843396005531,50.804714258275915,37.775021,-122.4194,4.941286632681822,-0.12117682074893643,-0.01593585747564643,3,16.39224026465289,0,9.771759724826794,7.667695414039968,4.942772239159607,6.533574201112202,0.19849095346380352,0.5422958979789172,0.04218467132415127,25.67915073844765,0.11620058995681859,False,False,0,0.05,NORMAL_FLIGHT
2440.0,0.28055886218721987,-0.003852075946878928,10.097337484341873,-3.8091233582942436,2.093522891461842,6.9921243867198655,50.818965995380886,37.775022,-122.4194,5.180222356212434,0.06768376541110072,-0.08497950030229447,3,16.431084492361226,0,10.101235191120756,8.23298623192947,5.180664508719256,16.473773314698104,-0.7125868552485315,1.9422113854167478,0.05043076678050112,25.67915073844765,0.2146671324335614,False,False,0,0.05,NORMAL_FLIGHT
2460.0,-0.2803702125584562,-0.052578165841653535,9.872281005420188,1.0518355677044346,-0.06986614238036654,-16.076413105231968,50.80364622402656,37.775023000000004,-122.4194,4.877646427561456,-0.1081109347824113,0.08011285839119536,3,16.411094206220394,0,9.876401377505553,16.110937206426367,4.8788443966294475,11.241690680760108,0.7659885677163913,-0.9995143070415935,0.05265178428717111,25.67915073844765,-0.011726927106963103,False,False,0,0.05,NORMAL_FLIGHT
2480.0,0.11737141876005407,0.004493178562409276,9.902302996020335,7.651672821772055,-1.6674314048484762,-2.7961271990467678,50.84858256272724,37.775024,-122.4194,5.42868896370873,0.08235461198419736,0.17097059006073306,3,16.416091123722172,0,9.902999589194613,8.315452589881636,5.429313598127118,1.3299105844529535,-2.2468169350339906,0.24984587508889433,0.02900315010932841,25.67915073844765,-0.8717335061501785,False,False,0,0.05,NORMAL_FLIGHT
2500.0,0.4380911251619957,0.109423823035042,9.481344183346332,-3.8904739291635715,4.426281604329802,-1.2719938398244293,50.81819206372576,37.775025,-122.4194,4.948681032842095,0.0017219582730560565,0.07752307288377537,3,16.422038389091075,0,9.492090651172091,6.028741540560612,4.948681332431034,20.545446901126052,1.5195249500738583,0.29736326844513883,0.04965478369375162,16.110937206426367,-0.09507986380569378,False,False,0,0.05,NORMAL_FLIGHT
2520.0,-0.19810726502613768,-0.23616256306176897,9.545773773119182,5.859050716369224,4.395070772785036,4.728150699278325,50.811412001730716,37.775026000000004,-122.4194,5.029398456857711,0.13336385618598276,-0.03711919512615264,3,16.46490306592782,0,9.550749508400797,8.717828366621019,5.031166341513618,2.9329428614352615,0.3390030997522331,2.143233841837322,0.06573788152168156,16.110937206426367,-0.06697743454800786,False,False,0,0.05,NORMAL_FLIGHT
2540.0,-0.11325954592055439,0.22286433893377444,10.349617505505394,7.490488167438921,-4.73245397994214,-27.22454140991939,50.85071164236587,37.775027,-122.4194,4.727379383883681,0.11414545783212711,-0.09434698244081563,3,16.39282777935017,0,10.35263631876317,28.630039969221635,4.728757238927809,40.09434051811862,-1.964982031757856,-3.6037643288825194,0.1181676342941783,28.630039969221635,-0.31745646984987275,False,False,1,0.9,RAPID_VOLTAGE_COLLAPSE
2560.0,0.019930273017528245,0.1430762630882488,9.589439689571027,-4.08077494514022,-0.9108029192896205,1.6614061307833063,50.909360027324084,37.775028,-122.4194,5.057444069035056,0.14350654120021117,0.014462763378954378,3,16.419553591248988,0,9.590527701475134,4.49917286199086,5.059479680637636,38.10543086440177,-2.932419247910545,1.3362905949408699,0.12859110050968978,28.630039969221635,-1.05713803297526,False,False,0,0.05,NORMAL_FLIGHT
2580.0,-0.10069513082323985,0.1436371451415869,10.306862475617189,-7.27527302545276,1.4060584129203268,-11.49741455367893,50.88317206277275,37.775029,-122.4194,4.604136041029461,0.14608187182891127,0.08731692923815881,3,16.41054785266183,0,10.308355117579216,13.678345633685845,4.606452930138707,35.891370805204126,1.3093982275666605,-0.4502869293579792,0.18682874142510492,28.630039969221635,-0.3458950004551298,False,False,0,0.05,NORMAL_FLIGHT
2600.0,-0.31013268621322654,0.08769514776194547,9.73708164033574,1.5098045008588235,-1.3650337401129224,3.2434571119492386,50.981156261870545,37.77503,-122.4194,5.138739591002629,0.014363083398819771,-0.03870530262337277,3,16.40936537242733,0,9.74241405364,3.8292088973460734,5.138759663800458,28.297053196960853,-4.899209954889727,-0.05912401172487591,0.15345414257750284,28.630039969221635,-1.6296419814478469,False,False,0,0.05,NORMAL_FLIGHT
2620.0,0.013712594961205466,0.003923331538797981,9.810686380843052,-2.737037613834365,2.9251066614389916,-10.36329196838163,50.99681834655522,37.775031000000006,-122.4194,5.144885635247083,-0.11587930664246048,-0.02903829916507967,3,16.42407908950938,0,9.810696748501112,11.110600537426501,5.146190456393906,3.41413474305563,-0.783104234233889,0.7356858541024636,0.12041379095637006,28.630039969221635,-1.8540634482450713,False,False,0,0.05,NORMAL_FLIGHT
2640.0,-0.21246074274522098,0.134572247193364,10.131109548068979,9.343016095815011,1.405960089551377,-8.554826959255813,50.94467193346479,37.775032,-122.4194,5.271858284867302,-0.10525230549973785,0.28220002498383984,3,16.379357611316276,0,10.134230603844426,12.745734103725834,5.272908857882623,16.17669276716569,2.607320654521672,-2.2360739096551896,0.0871781148016074,13.678345633685845,-0.9396029109891657,False,False,1,0.9,RAPID_VOLTAGE_COLLAPSE
2660.0,0.09471848612703632,0.11836282674827561,10.191567726581598,0.174037702499161,9.162806201780063,-2.7362761039326817,50.96312453589429,37.775033,-122.4194,4.7960062562464625,-0.20868485293159378,0.1078651945959726,3,16.376919746244635,0,10.192695133077887,9.564230942957378,4.80054427932899,2.9232264616730674,-0.92263012147491,-0.1218932535820727,0.061330026347335476,13.678345633685845,-0.5376450857020387,False,False,0,0.05,NORMAL_FLIGHT
2680.0,-0.18388484684676065,-0.07080814218820476,9.776756231916274,-4.010997040175896,-7.651395679648938,-10.523294696031954,50.94397457517011,37.775034000000005,-122.4194,5.032112423659484,-0.10836658334280935,0.11501286783936322,3,16.392438331780394,0,9.778741731338123,13.615127041727686,5.033279126050285,20.697670086988218,0.9574980362089036,0.7759292767879344,0.045751069452947574,13.615127041727686,-0.6080251239735901,False,False,0,0.05,NORMAL_FLIGHT
2700.0,0.3099868810035079,-0.1147203545793802,9.69352708394354,-5.735797555058557,-0.6121799487369873,-4.755344467353549,50.96567799952927,37.775035,-122.4194,5.112763311877301,0.006882365770464906,-0.14602859060588122,3,16.381538600859713,0,9.69916078603175,7.475790184685587,5.112767944102015,3.9790472653185915,-1.085171217957992,-0.544986546034032,0.050220059941315384,13.615127041727686,0.15478262341275695,False,False,0,0.05,NORMAL_FLIGHT
2720.0,-0.15665065846724743,0.02037125905239734,9.793223865443336,5.449524795454152,-4.542512557560955,-11.933757685433154,50.963535187146256,37.775036,-122.4194,5.088456327666062,-0.05596541808251622,-0.07071886792934605,3,16.390712188145507,0,9.79449784806156,13.883310603977117,5.088764086355933,4.766853101490476,0.10714061915066964,0.4586793642896936,0.05118298585823763,13.883310603977117,0.33283159408966867,False,False,0,0.05,NORMAL_FLIGHT
2740.0,-0.06441230324113512,0.30980403029903747,9.911387258469636,-2.8559198704209328,3.0205372771952206,-18.331704516987276,50.96724887165576,37.775037000000005,-122.4194,4.82694014497303,-0.01801356044098513,0.007468163945423903,3,16.414746721573998,0,9.916437105601618,18.797109199217914,4.826973757077203,6.096962877002898,-0.18568422547531327,1.2017266714245523,0.037326094060049754,18.797109199217914,-0.2257693819097284,False,False,0,0.05,NORMAL_FLIGHT
2760.0,0.16270344347393395,-0.24782141513078018,10.077391106060928,0.2191439973021413,-8.085859450227723,10.179570524293595,50.92166920282646,37.775038,-122.4194,4.521603622088772,0.0492715419461401,-0.10011375578851496,3,16.373078386206203,0,10.081750808705381,13.002030733676087,4.521872068085524,8.265685155188152,2.2789834414652432,-2.0834167683897675,0.022237062269212893,18.797109199217914,0.41455333067830225,False,False,1,0.9,RAPID_VOLTAGE_COLLAPSE
2780.0,-0.24617286328679105,-0.293505053150488,9.811268957698246,4.779013725562404,1.731563551124433,-12.960486928239284,50.97117226436227,37.775039,-122.4194,5.069392059376896,-0.030406525806575803,0.16003972988892945,3,16.37569731619585,0,9.818744566141689,13.921620090268153,5.069483248664024,13.150312128184627,-2.4751530767908037,0.13094649948239834,0.021049482297515795,18.797109199217914,-0.2719768919216392,False,False,0,0.05,NORMAL_FLIGHT
2800.0,0.045491986920825886,0.03295216824730335,9.995665889406947,-2.421291759654151,-3.1502421567417054,-1.7868088760798353,50.91336589600472,37.775040000000004,-122.4194,4.969500064338016,-0.11218288004125843,0.14103123065906453,3,16.38442669030565,0,9.995823724882296,4.35653134857531,4.970766126869166,8.853957937030366,2.8903184178776797,0.4364687054899008,0.014479546089313445,18.797109199217914,0.5231210352454951,False,False,0,0.05,NORMAL_FLIGHT
2820.0,0.26142855085648564,0.010177540371203614,10.301507919681283,-0.2296441437008032,-3.6708093306050706,7.528910814937849,50.85792765123447,37.775041,-122.4194,4.886665881407712,-0.005323366756343213,-0.053354533738405374,3,16.37552367650201,0,10.30482963899875,8.37926462368157,4.886668780953732,15.450295705822725,2.7719122385125416,-0.4451506901819613,0.03417318706899844,18.797109199217914,1.0560753591178695,False,False,0,0.05,NORMAL_FLIGHT
2840.0,-0.32149664691224555,0.034668332874081643,9.924392883679436,-0.08284204911260037,-7.2324910177034365,-6.1494410251604315,50.876295668691846,37.775042,-122.4194,5.152789072743094,-0.0898490486772845,0.1783918606607485,3,16.340959503249636,0,9.929659414950098,9.493756582522444,5.153572360967569,18.758511202432615,-0.9184008728688298,-1.728208662618691,0.033500230101131886,13.921620090268153,0.9095320296391662,False,False,1,0.9,RAPID_VOLTAGE_COLLAPSE
2860.0,0.036926771706460845,0.04879063958170005,9.903495856801435,3.4166225575804594,-2.32537973100503,-8.25165899745538,50.956437881050746,37.775043000000004,-122.4194,4.991016092369113,-0.027078649697906312,-0.00042520967199421344,3,16.36678664174332,0,9.903684884862939,9.228790646917016,4.991089549142243,1.2987265043579832,-4.007110617945031,1.2913569246842727,0.034892455582493535,13.921620090268153,-0.3476867822428886,False,False,0,0.05,NORMAL_FLIGHT
2880.0,0.05197655884968471,-0.04464045092696103,9.35432675247298,2.953721677551629,5.422502651454629,2.2623808866742148,50.93880822619752,37.775044,-122.4194,4.73616098944644,0.13427769644230034,0.2589389717389049,3,16.391286234229444,0,9.354577666819626,6.5761975357998255,4.7380641002118296,27.455360902165626,0.8814827426611771,1.224979624306144,0.11785547476279068,9.493756582522444,0.3236403816475075,False,False,0,0.05,NORMAL_FLIGHT
2900.0,0.15636457435546208,0.29797268772041646,9.020780958951281,-1.1005686562741426,-0.12594341764739736,11.17933822727152,50.97385684233272,37.775045000000006,-122.4194,4.6137095421807555,-0.027050530409617468,0.014468613052503645,3,16.40543927919074,0,9.027055262493894,11.234087248697872,4.613788841159204,16.376120216286605,-1.7524308067599748,0.7076522480648606,0.2580356542500447,11.234087248697872,-0.6049094632800234,False,False,0,0.05,NORMAL_FLIGHT
2920.0,-0.2473901421756164,-0.3201807956953031,9.92651271876905,0.31824530748258856,3.1384020893723723,-11.69315265086469,51.0275238511759,37.775046,-122.4194,4.774207346973367,0.1770957553347745,0.0576192750328422,3,16.352745547608727,0,9.934755778591715,12.111179408576833,4.777490837087191,45.38502580489103,-2.6833504421588827,-2.634686579100709,0.17424376739989966,12.111179408576833,-1.6959619994143083,False,False,1,0.9,RAPID_VOLTAGE_COLLAPSE
2940.0,-0.26409132261685525,-0.1656994049560492,9.781552730615738,-1.8588950576174421,8.323209109831375,-1.5014783201743893,51.0682580730406,37.775047,-122.4194,5.4786024589533575,0.143163598693797,0.13999034411695585,3,16.351801845762257,0,9.786520032233138,8.65943057407173,5.480472672976368,7.41178731792882,-2.036711093235155,-0.047185092323509537,0.15689119042513797,12.111179408576833,-1.9196240434875733,False,False,0,0.05,NORMAL_FLIGHT
2960.0,0.10438831312337954,-0.020650952029809478,9.655565197525577,-7.388062034597223,1.318777924112879,-17.324945949673275,51.05269765858192,37.775048000000005,-122.4194,5.144555354786554,-0.05793053085790432,0.12776333498078093,3,16.374741744588615,0,9.656151545279497,18.880582300323386,5.144881509312774,6.518424347682039,0.7780207229341585,1.1469949413179137,0.1317228886022912,18.880582300323386,-0.9625977753117354,False,False,0,0.05,NORMAL_FLIGHT
2980.0,0.059396934646637214,-0.32863776223083346,9.883059061255905,1.288004286990647,-2.7939978603117033,-3.9320100368219,50.998145322722216,37.775049,-122.4194,5.037722468395002,-0.11111237664157757,0.051073206613589356,3,16.331774742024102,0,9.88869997435871,4.9926027296792626,5.038947670775594,11.627421453960629,2.727616792985188,-2.148350128225651,0.13610657265754122,18.880582300323386,-0.5933709652469332,False,False,1,0.9,RAPID_VOLTAGE_COLLAPSE
3000.0,0.05009857006917531,-0.035170880886414235,9.791878881240928,9.460958804165339,2.3362610759139493,0.34204684538075447,50.88776794443865,37.77505,-122.4194,4.9636678145628395,-0.005255416192019341,-0.014114031944383583,3,16.36353681404931,0,9.7920702041232,9.751146258434398,4.963670596718359,4.831488511775461,5.518868914178299,1.588103601260471,0.011571595956959658,18.880582300323386,0.8608889789407215,False,False,0,0.05,NORMAL_FLIGHT
3020.0,0.06928964189939514,0.3322940331456037,10.14833407519017,-4.418595703455314,-2.7214807315714595,-8.546246417550657,50.87462591946553,37.775051000000005,-122.4194,4.950521412010513,0.11533277633968891,0.05141326999931192,3,16.33686495170542,0,10.154009300793685,9.998438537712072,4.951864689192626,18.096954833524226,0.6571012486560335,-1.3335931171946314,0.03468285545905248,18.880582300323386,1.5289793171037047,False,False,0,0.05,NORMAL_FLIGHT
3040.0,-0.13600494431569818,0.004177297659192358,9.835833260477694,-3.865148548013515,-2.522113416485847,-4.5699183382523145,50.93353028789364,37.775052,-122.4194,5.233439196671819,-0.04901909062286883,-0.08161841718761151,3,16.39811659368069,0,9.836774406410534,6.494965973900378,5.233668760678924,15.861744719157578,-2.945218421405471,3.0625820987635777,0.03345492928944196,18.880582300323386,1.3472778514696415,False,False,0,0.05,NORMAL_FLIGHT
3060.0,0.04645073943220071,0.0461401811437367,9.58592301447895,-4.353638858218707,-7.599463998094924,-14.082267683074502,50.87732198865554,37.775053,-122.4194,4.901880851619314,0.09080902982621392,0.015213371886411586,3,16.354498319384227,0,9.58614659949591,16.58361503001976,4.902721913730175,12.531390345731186,2.810414961905039,-2.1809137148231628,0.041764219505929456,16.58361503001976,1.7537566992638176,False,False,1,0.9,RAPID_VOLTAGE_COLLAPSE
3080.0,0.058614494659736255,-0.25203295303451606,10.107049871687787,3.6229588936156127,4.631287455421961,0.7707861138149362,50.91233248103148,37.775054000000004,-122.4194,5.115384082136859,0.12084399891360882,-0.1109307532497995,3,16.40209120098541,0,10.11036168379666,5.930325949964911,5.116811270689255,26.21075421503747,-1.7505246187969448,2.379644080059151,0.055709463157001766,16.58361503001976,0.8581284169073911,False,False,0,0.05,NORMAL_FLIGHT
3100.0,-0.14287028360527357,-0.1232722816078955,9.74486067751614,2.2424272709822004,-1.9300128782471964,10.556942488831497,50.864824854528884,37.775055,-122.4194,4.930314409941682,-0.07740256503626058,-0.17808816400803015,3,16.39045451911519,0,9.746687519231886,10.963688452721579,4.930921956181499,18.183708228238693,2.3753813251296663,-0.581834093511091,0.058476792831080385,16.58361503001976,0.22943089909766456,False,False,0,0.05,NORMAL_FLIGHT
3120.0,0.3731549022289513,-0.0750392760647874,9.967961005101692,-0.7926884620822836,0.9104912290793101,-10.971438697704636,50.870128483348225,37.775056,-122.4194,5.388031326367012,-0.06760510882885871,0.005042676413944306,3,16.35440732087947,0,9.975225414657944,11.037654477906052,5.388455439609019,11.426894771302898,-0.265181440967055,-1.802359911785878,0.040982803482652826,16.58361503001976,0.04497436117304687,False,False,1,0.9,RAPID_VOLTAGE_COLLAPSE
3140.0,0.0947665841823575,-0.06354301935124682,9.66677678814216,-4.590095308194825,-5.179809643033197,-6.226717665523829,50.905518064055975,37.775057000000004,-122.4194,5.14845770151566,0.07126620321270069,0.12622778906716722,3,16.34504404888389,0,9.667450123613254,9.309748426381798,5.148950919946341,15.388764552234502,-1.7694790353875334,-0.4681635997791034,0.047924627630024814,16.58361503001976,0.2801222383766344,False,False,0,0.05,NORMAL_FLIGHT
3160.0,-0.23826069944052974,0.25632875900075375,9.61505193435077,0.46188395819962147,2.179738148577362,5.0254624645418176,50.872543292214054,37.775058,-122.4194,5.249111362936725,0.015184754964157061,0.09258046415960593,3,16.361761901424853,0,9.621418621692502,5.497260060223123,5.2491333263020445,2.301575096037567,1.6487385920960662,0.8358926270481959,0.04409904421143399,11.037654477906052,0.04778696441483987,False,False,0,0.05,NORMAL_FLIGHT
3180.0,0.13131072172676594,0.1115382121450249,9.83525046905571,-7.823110636679021,-3.809706190675419,12.120907193227362,50.8810675262489,37.775059,-122.4194,4.883118045062353,-0.06860615265436788,-0.008191229572560826,3,16.36268945871043,0,9.836759378345567,14.920834845269948,4.8835999678716115,10.767037832653248,-0.42621170174221845,0.04637786427892365,0.019927362756319775,14.920834845269948,0.31264954782578513,False,False,0,0.05,NORMAL_FLIGHT
3200.0,-0.1949363340454643,-0.2222915913874064,9.813848593063106,0.7171328342874661,-0.7085436085091212,-14.931898122089313,50.86031295941263,37.77506,-122.4194,5.211627222513484,-0.03521804481195873,0.17469896981754965,3,16.37085490486204,0,9.818301173497344,14.965891055183672,5.211746215725013,0.9229102424111346,1.0377283418133487,0.408272307580404,0.020135929268381463,14.965891055183672,0.045118951162521626,False,False,0,0.05,NORMAL_FLIGHT
3220.0,0.15741692074849042,0.04930095568640098,9.95394811061005,4.357621930439671,4.3891301561956295,-1.6878473741594933,50.895570392359545,37.775061,-122.4194,4.937484514921062,-0.0070519552727419145,-0.05690613908465737,3,16.347550674979782,0,9.95531484483976,6.41109672171086,4.937489550891064,6.850683567120797,-1.7628716473456763,-1.1652114941128389,0.0183098289247405,14.965891055183672,-0.25441909011320263,False,False,0,0.05,NORMAL_FLIGHT
3240.0,0.23171911580148083,0.09964434969935704,9.729406274007077,-6.25599568316839,3.953796561162646,2.83130822319525,50.90733625078378,37.775062000000005,-122.4194,5.02200696478657,-0.15648544249554608,-0.19178326617980235,3,16.377159013028223,0,9.73267533567945,7.923780378683911,5.024444411880566,11.131975458015475,-0.588292921211675,1.4804169024220215,0.015495079904790857,14.965891055183672,-0.01818186727803095,False,False,0,0.05,NORMAL_FLIGHT
3260.0,-0.1641364636703421,0.2280298077042533,9.25909206486888,-7.662591384148318,-0.11015036258470232,-1.0205639062884797,50.910161634505236,37.775063,-122.4194,5.327009534123892,0.07656431064826952,-0.2182101294200962,3,16.36668725144517,0,9.263353833122522,7.731040713230036,5.327559729398807,23.46607512784642,-0.14126918607288985,-0.5235880791525815,0.07183678287781269,14.965891055183672,-0.37618342291182216,False,False,0,0.05,NORMAL_FLIGHT
3280.0,0.19267522584886437,0.3161081373136747,9.680167834923484,7.897189458474298,-8.840655163533592,-24.76792066877087,50.98807913251234,37.775064,-122.4194,4.791444988648716,-0.047869218893919124,-0.11811909405957172,3,16.35372236199825,0,9.687244056459972,27.458562950709528,4.791684102835287,21.1945111668725,-3.8958749003551674,-0.6482444723459935,0.06767484922227213,27.458562950709528,-1.070116062634412,False,False,0,0.05,NORMAL_FLIGHT
3300.0,0.08255618538729967,-0.20301883836557374,10.048145540143144,-3.0587981975229246,14.964052850303206,5.010900093087719,51.021194439630754,37.775065000000005,-122.4194,5.04064954626108,-0.2783716223798099,0.08166247432622288,3,16.345439026811597,0,10.050535357301897,16.074459364555423,5.048330279247625,18.164565042096203,-1.6557653559207353,-0.4141667593327014,0.09319935981547887,27.458562950709528,-1.6088148021812287,False,False,0,0.05,NORMAL_FLIGHT
3320.0,0.164412031998898,-0.16217150224206767,9.720787176227068,5.679739229719109,8.72929485136568,15.19336351090644,50.986676846324436,37.775066,-122.4194,5.0876010517037455,-0.002387096830945272,-0.06348026834673863,3,16.35513171504538,0,9.723529926827299,18.42005214689233,5.087601611715321,16.350271523729898,1.7258796653159436,0.48463441168919985,0.07873874008131336,27.458562950709528,-0.9110645396489048,False,False,0,0.05,NORMAL_FLIGHT
3340.0,0.3793585965307895,-0.2515155717829233,9.736084979245636,-0.7699883259891585,3.6133741244414925,1.1666175116950344,50.98238365128455,37.775067,-122.4194,5.104000876160162,-0.07415712588935076,0.04609586418573021,3,16.341640964458197,0,9.746718614523742,3.8743194246133634,5.104539570143802,1.1594343848221556,0.21465975199426168,-0.6745375293592204,0.07906752796344496,27.458562950709528,-0.7504740050077174,False,False,0,0.05,NORMAL_FLIGHT
3360.0,-0.0490776232005741,-0.04680397182139628,10.105912951771781,-0.8097740847066373,-3.766018907954854,-10.311060532942633,50.978588712030565,37.775068000000005,-122.4194,4.909843101381307,0.1688822192302677,0.16462833835839774,3,16.358297338179813,0,10.10614050039212,11.00711596183774,4.912746735193435,17.971094293418943,0.1897469626992887,0.8328186860808273,0.039537522121188585,27.458562950709528,-0.6842707752532817,False,False,0,0.05,NORMAL_FLIGHT
3380.0,-0.15074723287149794,0.09327167488926691,9.596408031822323,2.1920634974832263,-0.5679608085098233,-5.131272463642831,50.98260469066183,37.775069,-122.4194,5.417252820161616,-0.058544502091996825,-0.11000969625778062,3,16.35798691277393,0,9.598045188827726,5.608714554435864,5.417569157498055,25.404765578219735,-0.2007989315632841,-0.015521270294094336,0.048960008007534334,18.42005214689233,0.05474441850509493,False,False,0,0.05,NORMAL_FLIGHT
3400.0,-0.17790288592510467,0.19746690331782038,9.347159034527131,-4.419994283732203,-2.7171021488825846,17.69913067655593,51.1088301544922,37.77507,-122.4194,4.741013622931948,-0.10976433635786109,0.04784997317958899,3,16.360661859526456,0,9.350937099107691,18.443920956821817,4.74228408916657,12.355404486001742,-6.3112731915186515,0.13374733762621105,0.07494933597122456,18.443920956821817,-0.8763571486144883,False,False,0,0.05,NORMAL_FLIGHT
3420.0,-0.16316205699308767,-0.015190204728504554,9.761810664142352,0.6624857174782277,6.319279695481942,9.099625408605586,51.12737274912775,37.775071000000004,-122.4194,5.291777077726493,0.0507932669962016,0.05389630726557222,3,16.389902136837758,0,9.763185957551217,11.098439790012531,5.292020842393168,20.6124429221763,-0.9271297317773985,1.462013865565126,0.07562979525345295,18.443920956821817,-1.4069590280331568,False,False,0,0.05,NORMAL_FLIGHT
3440.0,-0.015420341882820841,-0.06396950465096879,9.664747814625379,-1.9074470741204639,1.3125144542591691,6.400266183843293,51.025577620622514,37.775072,-122.4194,5.243013121118327,-0.06604473680075833,-0.08607379884731033,3,16.351077969037725,0,9.664971816036253,6.806207149158623,5.243429077948707,4.9107070757481885,5.089756425261882,-1.9412083900016697,0.07558833233520051,18.443920956821817,-0.43193969337963267,False,False,1,0.9,RAPID_VOLTAGE_COLLAPSE
3460.0,0.06823039496332878,0.030351598449748076,9.520126104074023,-6.602467217025158,-3.920819291799164,3.5641258353437606,50.998437672036665,37.775073,-122.4194,5.380177757920737,-0.07794562012522323,0.13542109252450832,3,16.3729683955616,0,9.520418984676933,8.465718530697869,5.380742349018554,7.227641567966003,1.3569974292924059,1.0945213261937425,0.024280362926340896,18.443920956821817,-0.19848960006100924,False,False,0,0.05,NORMAL_FLIGHT
3480.0,0.055338159866003815,-0.16702858032600462,9.757386463230393,1.6874103736319954,-2.3537754956239096,-6.611371121909723,50.901819067661876,37.775074000000004,-122.4194,4.682354580258436,0.0509501382824406,-0.028770705554947658,3,16.35661776094602,0,9.758972868668854,7.217883413055539,4.682631774105045,11.92769419959605,4.830930218739482,-0.8175317307790309,0.030951173442486022,18.443920956821817,0.807856229999544,False,False,0,0.05,NORMAL_FLIGHT
3500.0,0.16543664980720477,0.4179077443389547,9.957451694174036,-1.3165390343895809,5.605940712849523,-2.0057118065576858,50.88532915480958,37.775075,-122.4194,4.826233702422058,-0.10404673078895661,-0.038375298091300934,3,16.34641070175593,0,9.967590501705379,6.0977640292176085,4.827355121863565,10.43088165182624,0.8244956426146643,-0.5103529595045231,0.02660411071950048,11.098439790012531,2.235009996826207,False,False,0,0.05,NORMAL_FLIGHT
3520.0,0.002600378375581404,-0.32153220542361177,9.807213431529656,-0.785124142223539,8.00048923410239,-0.7792273567851586,50.785963643323264,37.775076000000006,-122.4194,5.298388611832328,-0.1457273658199453,0.21116132184179728,3,16.347941977182266,0,9.812483121650093,8.076598490531325,5.300392282382816,7.755369002764301,4.968275574315939,0.0765637713168843,0.02778420589003211,8.465718530697869,3.4140910580448747,False,False,0,0.05,NORMAL_FLIGHT
3540.0,0.2907068154314634,0.03694811577914489,9.902094321805873,-6.050804717070789,7.641657817431228,5.495743160644439,50.74238411976984,37.775077,-122.4194,4.624592169073939,0.17259980020943372,0.052276674236671816,3,16.348298209185323,0,9.906429607771814,11.189743733017483,4.627811947485802,4.69732430608607,2.178976177671288,0.017811600152839446,0.02979645164504532,11.189743733017483,2.831935008526756,False,False,0,0.05,NORMAL_FLIGHT
3560.0,-0.05293136664759122,0.4047212438459279,10.354022309554628,7.957001838814021,3.7851603252698873,15.089188942669034,50.66634804328813,37.775078,-122.4194,4.678708219791917,0.05794987376006449,0.09252905496854981,3,16.354219666310644,0,10.362064417940584,17.473549722321803,4.679067085842782,22.781740508438464,3.801803824085326,0.29607285626607194,0.05668624096532096,17.473549722321803,3.32089628748534,False,False,0,0.05,NORMAL_FLIGHT
3580.0,0.5440338333179238,0.0013599689119995538,9.707136341532731,4.3835709319305804,-1.263124344013184,11.183381367931279,50.685556052186506,37.775079000000005,-122.4194,4.902338442657702,-0.026420928499436516,0.1354892931521839,3,16.328587471639093,0,9.72236959873546,12.078046035857703,4.902409639332714,31.984740960256186,-0.9604004449187187,-1.2816097335775822,0.06066092677592497,17.473549722321803,2.1626301547536997,False,False,0,0.05,NORMAL_FLIGHT
3600.0,0.12513346955300125,-0.0380078070002989,9.893504590393402,4.820779420859893,-16.207569126645602,-14.193843557960406,50.68558302031795,37.77508,-122.4194,5.038398757724454,-0.00034772097019360225,-0.0650473999459217,3,16.31761665406197,0,9.894368906541269,22.076920214727327,5.038398769723293,8.599965390290443,-0.0013484065721769412,-0.5485408788562296,0.061242510746549086,22.076920214727327,1.9974613449163314,False,False,0,0.05,NORMAL_FLIGHT
3620.0,-0.1714315112832565,-0.07148908456208544,9.65723599122026,-1.52722351220841,1.4858001190411079,2.239949689010487,50.70073113569289,37.775081,-122.4194,5.318445014729755,0.05058643581161561,0.12498210970536792,3,16.359158984387744,0,9.659022023082478,3.0915025892408594,5.3186855859499635,11.76734417293952,-0.757405768747077,2.0771165162887684,0.07570195677446123,22.076920214727327,0.8523250763037282,False,False,0,0.05,NORMAL_FLIGHT
3640.0,-0.21417849961222246,-0.03607833635248157,9.556092084033908,-8.645914447517102,-0.009143794220501968,7.367633451678969,50.69550356626446,37.775082000000005,-122.4194,4.962946817013928,0.09733374496134208,-0.050189411499767,3,16.363185087957277,0,9.558560037714136,11.35931084710057,4.96390118419141,5.0230992684171305,0.2613784714213807,0.20130517847665175,0.10032575315307446,22.076920214727327,0.4688055350537468,False,False,0,0.05,NORMAL_FLIGHT
3660.0,0.09649448304863706,0.27456969493530603,9.634527703974669,9.764586912447554,0.6999104816067686,6.188603301446354,50.62578867875424,37.775083,-122.4194,4.8783521703870925,-0.0755975291315012,-0.054462338933829735,3,16.359284902749103,0,9.638922335058577,11.581702943681373,4.878937884901922,4.018114867222078,3.485744375511146,-0.19500926040869615,0.015887855247014464,22.076920214727327,0.40559364533891085,False,False,0,0.05,NORMAL_FLIGHT
3680.0,-0.04469255706517018,-0.44237238226590136,9.666372428543493,-0.30548754002934064,0.2694867351660319,-6.292337633874194,50.65146474721698,37.775084,-122.4194,5.062277987539286,0.03661465259656824,-0.02719999723081362,3,16.34662120125157,0,9.676592720402903,6.305510180486041,5.062410399790752,1.8835192672162826,-1.2838034231368312,-0.6331850748766854,0.015672468919217256,22.076920214727327,0.34091304969528835,False,False,0,0.05,NORMAL_FLIGHT
3700.0,0.1428000988184184,0.3066867402592651,9.917842739264138,-3.743998980100269,-6.631310809745785,29.141092157683616,50.74757597523045,37.775085000000004,-122.4194,5.09391929665888,-0.05067041762102386,-0.06220648349449548,3,16.3580158282169,0,9.923610896525911,30.119679008267216,5.09417130572732,12.350908806150418,-4.805561400673497,0.5697313482665223,0.018897458307557055,30.119679008267216,-0.6199295491249757,False,False,0,0.05,NORMAL_FLIGHT
3720.0,0.09464752491470897,-0.28479143049002903,10.514722736010228,2.0840078724155693,2.787042784255928,-12.770845623311189,50.76803660416078,37.775086,-122.4194,5.088247964434054,-0.018898124451262432,0.08221564326571629,3,16.35608949097557,0,10.519004635801975,13.236509896041692,5.088283058820045,29.7696869638032,-1.023031446516498,-0.09631686206645895,0.1529143389443604,30.119679008267216,-0.6730546846788599,False,False,0,0.05,NORMAL_FLIGHT
3740.0,-0.014565782531374555,-0.05333046584688296,9.595186969117249,5.835603940016487,3.1610815701592516,-10.8318844666605,50.7467403741949,37.775087,-122.4194,4.964402758409731,0.016069286746490462,0.026721065514505572,3,16.35672307242172,0,9.595346229966152,12.703402344923877,4.964428765697287,46.18292029179116,1.0648114982938495,0.03167907230743339,0.14757917107403865,30.119679008267216,-0.5123680793043661,False,False,0,0.05,NORMAL_FLIGHT
3760.0,-0.169358743613681,-0.08584888405973237,9.685012408315362,-0.11525278042733096,3.411693910298296,2.335950812615763,50.67533701538963,37.775088000000004,-122.4194,4.6089827772163705,-0.0006678573052672212,-0.04912244146171129,3,16.32292924360317,0,9.686873477245134,4.136375797715067,4.6089828256037695,4.576362363949116,3.5701679402635023,-1.6896914409274544,0.1424821427593104,30.119679008267216,-0.4954833663538949,False,False,1,0.9,RAPID_VOLTAGE_COLLAPSE
3780.0,-0.3029694449371729,0.11771065395414396,9.791063096066626,6.392875839696872,4.732885017866933,21.168030549638534,50.62993366685163,37.775089,-122.4194,4.816476802178734,0.07355668983025719,0.06745050331548218,3,16.317330598874317,0,9.796456646858477,22.61315058643,4.817038444163039,5.4791584806671345,2.270167426900116,-0.279932236442626,0.13314790124275386,30.119679008267216,0.21531080365349453,False,False,0,0.05,NORMAL_FLIGHT
3800.0,-0.08930299041340423,-0.3196248703767495,9.928739654612924,5.414999692584343,3.020258224608116,-8.361948507041708,50.65258564968023,37.775090000000006,-122.4194,5.284054217053493,0.0487086559115594,-0.027518243738634603,3,16.330647824669757,0,9.934284383434134,10.409916630233814,5.284278711604973,6.891386828782853,-1.1325991414302905,0.6658612897719962,0.1332739653377185,22.61315058643,0.9499032555021358,False,False,0,0.05,NORMAL_FLIGHT
3820.0,0.1712797588646945,0.09243453321638857,9.889065243586437,-5.381905937010291,-2.050147057694554,-2.658283656469923,50.7062415510202,37.775091,-122.4194,5.0374137875953195,-0.15081692093721777,-0.032807037036467666,3,16.337221102201344,0,9.890980350331152,6.343066015047877,5.039670962582419,2.1652016551491293,-2.682795066998267,0.32866387657932705,0.019789396987641535,22.61315058643,0.617950531405782,False,False,0,0.05,NORMAL_FLIGHT
3840.0,0.042818748826040795,0.40486192465737053,10.195228738184436,-3.3689505282973817,-0.35418423958045114,10.772936730156928,50.7192848597563,37.775092,-122.4194,4.935495576178589,-0.13578232070654422,0.0048683884901543645,3,16.33187993663694,0,10.203354137105608,11.29298188830774,4.937363002767254,15.618689338722813,-0.6521654368050633,-0.2670582782201336,0.03734902262796905,22.61315058643,0.2745551443859995,False,False,0,0.05,NORMAL_FLIGHT
3860.0,-0.24914775574239761,-0.2726348009185621,9.082082378839438,4.787685816398837,0.45562433626688437,-0.178621548877335,50.759279224241595,37.775093000000005,-122.4194,5.223633709674795,-0.03697166847592929,0.04634603556662172,3,16.298334127340226,0,9.08958880670018,4.812632821031393,5.223764546485681,55.68826652027141,-1.9997182242647682,-1.6772904648357567,0.17306111577825659,22.61315058643,-0.8394220885196546,False,False,1,0.9,RAPID_VOLTAGE_COLLAPSE
3880.0,0.0346361851702364,0.037941233522079135,9.093921038941298,-13.56306281905219,0.5384972455330924,-3.3460385453029566,50.79466313644296,37.775094,-122.4194,4.77397667352621,0.1828625262441825,0.038984764937741966,3,16.36945136099708,0,9.094066145846064,13.98007962293691,4.777477575340023,0.22386695729421646,-1.769195610068408,3.5558616828426537,0.2669821109631076,13.98007962293691,-1.6472946959133594,False,False,0,0.05,NORMAL_FLIGHT
3900.0,0.07706347594576736,-0.13239643555932182,9.661236548396955,-0.7472784658249438,4.991088279858649,5.656329018867201,50.819989856012256,37.775095,-122.4194,4.954930373257398,-0.08515918325016024,-0.03632491822528305,3,16.328686163764058,0,9.662450995454247,7.580464714811833,4.955662124309983,28.419242480409146,-1.2663359784646389,-2.0382598616510705,0.2420962721382922,13.98007962293691,-1.674042063320229,False,False,1,0.9,RAPID_VOLTAGE_COLLAPSE
3920.0,-0.17677148724022662,0.08517744123860715,10.139190056263113,-7.154156008123359,3.2183437651124542,2.725179902295931,50.78706617624919,37.775096000000005,-122.4194,5.027551681034807,-0.02082227096127529,0.08471112074394023,3,16.336770746660704,0,10.141088617708744,8.304594528264666,5.027594799945984,23.931881112724884,1.6461839881532825,0.4042291448323354,0.29248503080139515,13.98007962293691,-0.8082462522899192,False,False,0,0.05,NORMAL_FLIGHT
3940.0,0.030745021189105583,0.003829555483150412,9.340305590518321,-2.3827690071676235,10.386717197849766,10.304387856367914,50.79576235184795,37.775097,-122.4194,4.911724499341074,-0.05363460269565219,-0.022239415107965607,3,16.35735721293182,0,9.340356976373597,14.823693581023901,4.912017327741591,40.036582066757376,-0.4348087799378675,1.0293233135557855,0.19753569601971405,14.823693581023901,-0.76477492091648,False,False,0,0.05,NORMAL_FLIGHT
3960.0,0.01164174368919998,-0.12829738180886194,8.907710298091873,-1.4941004451460207,11.03234489942336,12.914688890653634,50.75334346165384,37.775098,-122.4194,5.02015256458032,-0.055404438408808,-0.0654984488608719,3,16.284716362513528,0,8.908641787787134,17.05092839884065,5.020458288190208,21.585759429323126,2.1209445097053248,-3.6320425209146023,0.23809499829086628,17.05092839884065,0.05935762587753857,False,False,1,0.9,RAPID_VOLTAGE_COLLAPSE
3980.0,-0.22859405956612464,0.0975744569742148,9.981353821865763,-1.7912218895375398,0.3982479130696249,3.070030600053617,50.75421490930175,37.775099000000004,-122.4194,4.962461213715647,0.017823974390505558,-0.14680216487673514,3,16.32053150525311,0,9.984447913430017,3.5766136418529078,4.962493223339982,53.79030628214414,-0.04357238239549588,1.7907571369791597,0.24739857433979826,17.05092839884065,0.404482271412121,False,False,0,0.05,NORMAL_FLIGHT
4000.0,0.07155747206965667,0.3608696219573486,9.883097167110815,-2.761306260563043,-19.18327774229685,2.9173272537830903,50.77075808585509,37.7751,-122.4194,4.720131390442825,0.14007772761956513,0.09831784809990213,3,16.322172612007144,0,9.889942212693382,19.599330486228144,4.7222094524511276,4.725285036831739,-0.8271588276670627,0.08205533770162532,0.2640111459803541,19.599330486228144,0.49231770157163623,False,False,0,0.05,NORMAL_FLIGHT
4020.0,0.11215690527364688,-0.03818075834545974,9.48293747796017,-5.48571824814407,6.184162330636332,2.141109822861335,50.854697276224435,37.775101,-122.4194,5.036295576375811,0.04559683998805891,0.0012390076194007554,3,16.32233833135712,0,9.483677564774649,8.539398087876892,5.036501980982383,20.313232395936698,-4.196959518467125,0.008285967498800062,0.18997722923575897,19.599330486228144,-0.6763109997524452,False,False,0,0.05,NORMAL_FLIGHT
4040.0,0.2166102486350554,0.14395158842963637,9.514338119783721,11.459556334093431,-2.701881694935272,4.891305566492877,50.789210677506055,37.775102000000004,-122.4194,4.7343296416974265,-0.08035309614270923,0.02108723585105148,3,16.32474437523925,0,9.517892199284187,12.749371208514221,4.735011486397325,1.7107317254769328,3.274329935918985,0.12030219410643639,0.18020904372121285,19.599330486228144,0.06551674341892522,False,False,0,0.05,NORMAL_FLIGHT
4060.0,0.2107604104069806,-0.25865459157423276,9.519076884109598,9.337310020806754,-4.0074196091550345,0.5517063787146392,50.81328605905562,37.775103,-122.4194,5.033123025019345,0.27532295108032073,0.10458029156995155,3,16.35630637780982,0,9.52492240776412,10.175910292293901,5.0406477869785205,0.3515104239966149,-1.2037690774782561,1.5781001285285257,0.05640865155299448,19.599330486228144,-0.599425974017791,False,False,0,0.05,NORMAL_FLIGHT
4080.0,-0.27553387359141823,-0.19128727536360177,9.843160595242182,-5.810329101281415,-1.992226374946834,-0.0060848232228945046,50.8873478886368,37.775104,-122.4194,5.274827164830022,0.007857322096112585,-0.04774062315978161,3,16.339982434142858,0,9.848874059553241,6.142387745763463,5.274833016915251,16.197582589456072,-3.7030914790591396,-0.8161971833480663,0.03945907871305572,19.599330486228144,-1.3313297933505197,False,False,0,0.05,NORMAL_FLIGHT
4100.0,-0.18756500798302456,0.09448125557607548,9.622105417145098,7.910583756517836,-2.233215234073032,11.966271208272424,50.92529027692874,37.775105,-122.4194,4.943795360544789,-0.05772209563821134,-0.13743992484741285,3,16.344823536788287,0,9.624397123899655,14.517445790513882,4.944132320970896,11.223846782679292,-1.897119414596915,0.24205513227144593,0.022110687676011966,14.517445790513882,-1.5453219107364902,False,False,0,0.05,NORMAL_FLIGHT
4120.0,0.10300705344173196,0.296823205707193,9.958219175692657,-1.9973274523642646,3.061349050526963,15.161161803550431,50.966937549069996,37.775106,-122.4194,4.765703374005803,0.14120963746775894,0.0069780702215218515,3,16.32575481163932,0,9.96317437464777,15.595576366218943,4.767794963158972,16.938862537405708,-2.0823636070627316,-0.9534362574482813,0.040217354547125175,15.595576366218943,-1.1224027284556115,False,False,0,0.05,NORMAL_FLIGHT
4140.0,0.10275719018244177,0.071122669757132,8.953612001128683,0.6459373666585523,-7.797178895631127,-15.075529446334208,50.996322294163384,37.775107000000006,-122.4194,4.974602437359004,-0.04690706179438185,0.030796155208029544,3,16.29597452006759,0,8.954484091283156,16.98484094418935,4.974823583025263,50.434514168230656,-1.4692372546694088,-1.4890145785866338,0.1538351003947838,16.98484094418935,-2.0711161665732902,False,False,0,0.05,NORMAL_FLIGHT
4160.0,0.1030095372612096,-0.06261160610463087,9.55294444046166,-0.31636979948457933,-5.388603728958008,0.10021151740569072,51.06123901865215,37.775108,-122.4194,4.833605778384293,0.1662913654987443,-0.02628490661603728,3,16.281517615074968,0,9.553704970352241,5.398813049734804,4.836465407616338,29.961043953454247,-3.245836224438392,-0.7228452496310211,0.15316252417104423,16.98484094418935,-2.4795295959653174,False,False,0,0.05,NORMAL_FLIGHT
4180.0,0.7705462981309443,-0.00014171891532918345,9.472183811726685,-3.298743206269829,1.715792770987083,-6.886944334452347,51.00686511024654,37.775109,-122.4194,5.118901800526294,-0.08706427909666667,0.1473737578076169,3,16.291672976100653,0,9.503473458729951,7.826599123484489,5.119642158601122,2.511575581114478,2.718695420280781,0.507768051284252,0.1321298907705563,16.98484094418935,-1.1951722160973333,False,False,0,0.05,NORMAL_FLIGHT
4200.0,0.1141781021386334,-0.2500815467939435,9.733097796488252,4.919261718030733,3.114720152066541,-3.1097146648607232,50.93756877694803,37.775110000000005,-122.4194,4.97040225049543,0.14300303889213692,-0.24861665677213565,3,16.328606019435995,0,9.736979518056886,6.60082894589929,4.972458989359532,11.675302966346734,3.4648166649255074,1.8466521667670932,0.14055011253973465,16.98484094418935,-0.12278500019284877,False,False,0,0.05,NORMAL_FLIGHT
4220.0,0.2271131280361198,0.12090306527107336,9.64858567245296,0.629432652883289,3.2077082246800597,4.025162097353214,50.93725206992476,37.775111,-122.4194,5.341952650332915,0.020104766428169444,0.1120056637899783,3,16.321195674394023,0,9.652015509870612,5.185316521598727,5.341990482959697,4.248200409313707,0.015835351163318023,-0.3705172520986011,0.09444452952418639,16.98484094418935,0.29685479145236116,False,False,0,0.05,NORMAL_FLIGHT
4240.0,0.19080035269864049,0.17646661246468184,10.049353133968731,-2.382757116096207,-3.935181394666495,6.694383715424684,50.829193964746175,37.775112,-122.4194,5.2325979191354675,0.12910522327024337,0.07911536503642258,3,16.315506581976344,0,10.052713248228653,8.1226816638706,5.2341903998628565,20.03488691790203,5.40290525892928,-0.284454620883956,0.04702532519072117,8.1226816638706,1.671283294172099,False,False,0,0.05,NORMAL_FLIGHT
4260.0,0.1302782502611596,-0.09041806656661608,9.252198968501983,-6.522947219002363,-4.8913282463312004,-1.121264436113449,50.89072625495508,37.775113000000005,-122.4194,4.969383899103719,0.19017657087015444,0.04567707777004593,3,16.311487891580057,0,9.253557888833997,8.229894675567904,4.973021562870929,39.95776796973276,-3.076614510445097,-0.20093451981431087,0.08696457717684815,8.229894675567904,1.705127636970758,False,False,0,0.05,NORMAL_FLIGHT
4280.0,-0.06305384892806913,-0.09400842955190031,9.823647442899226,-4.467975068595602,-2.5331741689395963,-19.13340334722803,50.95176201472985,37.775114,-122.4194,5.143121813594618,-0.11326072905212539,-0.33359015494690963,3,16.358243436011104,0,9.824299591068666,19.810777274793924,5.144368764213761,28.53708511173343,-3.0517879887387522,2.3377772215523507,0.08569025368122177,19.810777274793924,0.5510309551668513,False,False,0,0.05,NORMAL_FLIGHT
4300.0,0.15179384409865349,0.0531756459304097,9.977500926963511,-8.206900578010485,1.1993637614236254,-9.650455805761796,50.93009448697562,37.775115,-122.4194,4.921352718167431,0.12757718207583224,0.12838887832702683,3,16.30070050747012,0,9.978797210485043,12.724896376337474,4.923006044481397,7.724880970818848,1.0833763877116098,-2.877146427049304,0.10138342921921167,19.810777274793924,0.07474289972407178,False,False,1,0.9,RAPID_VOLTAGE_COLLAPSE
4320.0,-0.15456504290751438,-0.08734394720811911,10.366994230968587,0.06111774207584733,7.427386846362748,8.96499670200166,50.911555957142596,37.775116000000004,-122.4194,5.006791377033034,-0.14089039044254048,-0.10264341106358853,3,16.33486454319936,0,10.368514295815908,11.642206689920062,5.008773302441567,19.485854266543257,0.9269264916511588,1.708201786462027,0.16813902445975898,19.810777274793924,0.25696112782163993,False,False,0,0.05,NORMAL_FLIGHT
4340.0,-0.04736372134800178,-0.013226522925164491,9.665470208671959,-5.983327961421979,-10.237185928853751,-27.40426422034931,50.90793858338506,37.775117,-122.4194,4.927713160729938,-0.10471843552482284,-0.05076919783833868,3,16.315495987584853,0,9.665595305915398,29.859569432504763,4.928825716656027,35.14594949502552,0.18086868787676735,-0.9684277807252784,0.167695847113291,29.859569432504763,-0.7874461863888627,False,False,0,0.05,NORMAL_FLIGHT
4360.0,-0.0970727095658207,0.4199443578333031,9.907337581305756,-1.3278025625927061,-1.1036437847918328,11.874271516819999,50.91053961590704,37.775118,-122.4194,5.153291191969942,-0.08034094597924371,-0.017059266479006883,3,16.313388513416108,0,9.91670884540692,11.999142190344278,5.15391742045173,12.555676974576091,-0.13005162609900367,-0.10537370843728411,0.06844383827413479,29.859569432504763,-0.19813360951964398,False,False,0,0.05,NORMAL_FLIGHT
4380.0,0.016374827877264513,-0.049405140149199334,9.268841162231292,6.850509268051854,-6.663392205126018,5.212299906445414,50.91689831186676,37.775119000000004,-122.4194,5.286597655341915,0.05036366361778612,0.04074180346519754,3,16.337289629411554,0,9.268987296006737,10.88569443011007,5.286837548864126,32.38607747000914,-0.3179347979859415,1.1950557997723266,0.16523709714415355,29.859569432504763,0.34863702863091817,False,False,0,0.05,NORMAL_FLIGHT
4400.0,0.46293171333470173,-0.07166803040424445,9.092413138706092,5.996497864607928,-8.261213386767448,13.161760815300221,50.94480991721068,37.77512,-122.4194,5.159729641438228,0.0033015876934859635,0.063942804219255,3,16.342157060880442,0,9.104472459330536,16.656457637238642,5.159730697741653,8.22574183381004,-1.3955802671958395,0.2433715734444064,0.25732678575931867,29.859569432504763,-0.1471543023505717,False,False,0,0.05,NORMAL_FLIGHT
4420.0,-0.37345303851834966,-0.12950836112703185,10.06343231273451,-0.16138447051308905,4.834783226724083,-1.9856918688096046,50.93617859956025,37.775121000000006,-122.4194,5.184387320257072,-0.0167136084162836,0.08928405543192965,3,16.30726503887631,0,10.071192059561245,5.229163030026116,5.184414261143547,48.33598001153545,0.431565882521312,-1.7446011002066442,0.17040020571364883,29.859569432504763,-0.24622642417654106,False,False,1,0.9,RAPID_VOLTAGE_COLLAPSE
4440.0,0.1372520380749027,0.14883839429998735,9.80833191190558,-0.43542363071574963,2.723122872496693,-20.61405424022905,50.98333826473414,37.775122,-122.4194,5.184606687447146,0.014623527902236097,0.08158535100785162,3,16.327189657186242,0,9.810421289816196,20.797697568144546,5.184627310722534,13.038538487252449,-2.3579832586943184,0.996230915496632,0.1789546787624578,20.797697568144546,-0.7539968134907582,False,False,0,0.05,NORMAL_FLIGHT
4460.0,-0.32254317423793033,-0.0362448346436206,10.163553806939527,9.39937274710504,2.247167579736311,4.30362641506498,51.0056356535904,37.775123,-122.4194,5.110251184466942,0.05912895892934729,0.025292720421312587,3,16.317633004831794,0,10.168735111794424,10.579185719651772,5.11059325344229,17.915691098911424,-1.1148694428133155,-0.4778326177223846,0.22723824412001173,20.797697568144546,-0.9509603768336206,False,False,0,0.05,NORMAL_FLIGHT
4480.0,-0.0943863731578867,-0.1298746076642852,9.397979133309075,2.603780601793556,4.605129198654967,12.746531240383412,50.975287481296775,37.775124000000005,-122.4194,4.772142768157947,0.06682481239413528,0.04159226590575908,3,16.309653495152386,0,9.399350402621803,13.800758929154993,4.772610622629265,38.469235458631076,1.5174086146814147,-0.3989754839704318,0.20353633425115777,20.797697568144546,-0.5838916943001493,False,False,0,0.05,NORMAL_FLIGHT
4500.0,0.21779011939347323,0.2642608064546024,9.965970641858625,-1.6390322993826145,-2.39859448383068,9.24721805513421,51.042043114686976,37.775125,-122.4194,5.3401943038833,0.10941668356151311,-0.10907537158222465,3,16.31273942601672,0,9.971852242403187,9.692818173033194,5.341315120255427,28.62509198906924,-3.337781669510065,0.15429654321668096,0.09103288629792865,20.797697568144546,-0.9723319747629944,False,False,0,0.05,NORMAL_FLIGHT
4520.0,0.012856003819092555,0.28392060090272747,10.370645352163157,-7.13009058560226,-2.1631875816676414,-6.626914834880354,50.97413026538085,37.775126,-122.4194,5.360882165339685,0.18200348127674396,-0.07510268068190223,3,16.294043725654078,0,10.374539083968717,9.971638406056067,5.363970810682509,20.134342078276468,3.395642465306281,-0.9347850181320894,0.1377817945266704,20.797697568144546,-0.37951665820600056,False,False,0,0.05,NORMAL_FLIGHT
4540.0,-0.21554895558586123,-0.12008471314774104,9.93591168250718,1.9693660908237163,10.928653083612872,0.8676107546264671,50.96952197483978,37.775127000000005,-122.4194,4.953224079337327,-0.0021362372441476973,0.08954602236748323,3,16.300831488871747,0,9.938974929698162,11.138519176407199,4.953224539997826,21.778207713527742,0.23041452705356846,0.33938816088348034,0.13243802023783688,13.800758929154993,0.1381628989435768,False,False,0,0.05,NORMAL_FLIGHT
4560.0,-0.14306074185199366,-0.37330799027212325,9.892974451677315,4.146618862914312,-1.2328552712978718,-5.32836268779924,51.01786784489355,37.775128,-122.4194,4.9258604169567635,-0.05210889621309163,0.08372094867286813,3,16.294490345930708,0,9.901048870347037,6.8633686369722895,4.9261360298316985,1.8963029675562737,-2.417293502688622,-0.31705714705196897,0.12026227659672736,13.800758929154993,-0.12232191303148454,False,False,0,0.05,NORMAL_FLIGHT
4580.0,0.13591954978693518,0.20150273796738444,9.812566824247305,-3.1582576225682195,3.675660565270456,-8.192664641893721,50.981714189647946,37.775129,-122.4194,5.122482330583075,0.06135361291851883,0.0723799416444421,3,16.323280160641733,0,9.815576659460282,9.518656719103287,5.12284974335125,4.273610544337725,1.8076827622802938,1.4394907355512743,0.047149595509106954,11.138519176407199,-0.06426708351170873,False,False,0,0.05,NORMAL_FLIGHT
4600.0,-0.14607332634342735,-0.1369259651520008,9.338735562862226,1.4560137756901625,0.031907704816574886,9.55388571179851,50.997191971986304,37.775130000000004,-122.4194,5.110162567036701,-0.11442548162646203,-0.051441676165652754,3,16.30249817878973,0,9.340881545639549,9.664249914542458,5.111443499872475,23.734755691036646,-0.7738891169179141,-1.039099092600182,0.1357802805078711,11.138519176407199,0.4485114270067214,False,False,0,0.05,NORMAL_FLIGHT
4620.0,0.043291717916394974,0.15812511983255373,10.216671880713104,-1.8178664745751454,-9.241292650392076,-11.97532311265162,51.024358951836255,37.775131,-122.4194,4.959610786249396,-0.06787041321116115,0.0910492131943696,3,16.277597495395643,0,10.217987181657454,15.23530413290076,4.960075155082915,43.85528180089526,-1.3583489924975822,-1.2450341697043399,0.1015177925874258,15.23530413290076,-0.5022868645540512,False,False,0,0.05,NORMAL_FLIGHT
4640.0,0.009114367980762757,-0.39402076354236715,9.626742708058481,-0.9201619959950136,-10.223145019006342,-8.938164305816127,50.98133275843719,37.775132,-122.4194,4.749994868882479,0.099938094639279,-0.1161244452480358,3,16.288232606212077,0,9.634807242543223,13.610663956481813,4.75104608240859,29.158996955711558,2.1513096699532497,0.531755540821699,0.1054090071514301,15.23530413290076,-0.118107835974115,False,False,0,0.05,NORMAL_FLIGHT
4660.0,-0.13032006952116343,0.17851946765986185,9.961344976914905,-12.439110287811657,-2.894921099699524,-11.040256334723855,50.97770887245749,37.775133000000004,-122.4194,5.061140238149956,-0.012412837481770418,0.1077359809862273,3,16.23786563255849,0,9.963796779840573,16.88192207250814,5.061155459848565,16.449476864867485,0.18119429898497685,-2.5183486826794166,0.10992960920425383,16.88192207250814,0.4015897243606048,False,False,1,0.9,RAPID_VOLTAGE_COLLAPSE
4680.0,0.4287888178650652,-0.24223438585615625,9.341089708028624,-1.1089070185806775,5.280506258349945,-14.902475232990467,50.96988368094703,37.775134,-122.4194,5.110287307635109,-0.1208192458358039,-0.026087080124589018,3,16.291110648212484,0,9.354062982546969,15.849201531630062,5.111715334087064,30.486689864680194,0.3912595755231507,2.662250782699793,0.14769035668086541,16.88192207250814,0.11830508700917619,False,False,0,0.05,NORMAL_FLIGHT
4700.0,0.12678380446360224,0.1461528238133049,9.456162100647667,4.846846512040272,3.941458283180018,1.4641429184260344,50.942296788355414,37.775135000000006,-122.4194,5.14516422960776,-0.14898030653651742,0.16841704063406326,3,16.30090297633946,0,9.458141279062614,6.416442082252628,5.147320670151698,5.203914825782263,1.3793446295807144,0.4896164063488584,0.12924999089596306,16.88192207250814,0.5489518363089019,False,False,0,0.05,NORMAL_FLIGHT
4720.0,-0.40502851733152145,0.0028546135672868215,10.240526219766672,-3.157012777832791,4.570385821120168,11.615030484819759,51.05738053095796,37.775136,-122.4194,5.069858554470842,0.004871667939380729,-0.1521442092065485,3,16.296576932847575,0,10.248533236829505,12.874940364777931,5.069860895082791,39.519597888344556,-5.754187130127164,-0.21630217459431833,0.1369544163679714,16.88192207250814,-0.3302157912170145,False,False,0,0.05,NORMAL_FLIGHT
4740.0,0.03729086295388553,-0.190787883879329,9.705809313312647,0.26263184107658133,-4.935230894681577,-1.8487675624526565,51.01922521328568,37.775137,-122.4194,4.945776970327618,0.114189653696801,0.17634040459185218,3,16.338052311642933,0,9.70775592253336,5.276686551970273,4.947095018011522,27.038865714807248,1.9077658836138767,2.073768939767895,0.13447848018857222,16.88192207250814,-0.3789245484848891,False,False,0,0.05,NORMAL_FLIGHT
4760.0,-0.1323572929536776,-0.0814072625853561,10.245982642812764,-3.779753533459602,8.079362450611567,-15.057478005641665,51.069471727989075,37.775138000000005,-122.4194,5.198800407901255,0.11285457775311865,-0.036146432916346186,3,16.309096920218003,0,10.247160870808075,17.50115076994753,5.200025176565407,26.97024741373575,-2.512325735169796,-1.4477695712464822,0.1813305189989741,17.50115076994753,-0.9176285553158436,False,False,0,0.05,NORMAL_FLIGHT
4780.0,0.1704866669592448,0.13726369139134018,9.786530802282446,1.8022083814638645,-4.824466500931922,8.399445397420276,51.04983167714502,37.775139,-122.4194,5.013169699513184,0.011088050289283736,-0.03794792560117442,3,16.307357411248876,0,9.78897809623703,9.852619705087452,5.013181961686242,22.909138728552314,0.9820025422026646,-0.08697544845635008,0.12150754709113795,17.50115076994753,-0.7994799619799409,False,False,0,0.05,NORMAL_FLIGHT
4800.0,-0.15850414768654014,0.02117889062304685,9.257430668112644,-1.082615987680868,1.0641219933498436,16.857017540349716,50.99549986770075,37.77514,-122.4194,4.907015397127056,0.20089094190961282,0.019483881898559693,3,16.263032568283084,0,9.258811731812802,16.925231264274384,4.911125866660651,26.508318221211358,2.7165904722135537,-2.2162421482896377,0.17250645236613338,17.50115076994753,-0.532030793453373,False,False,1,0.9,RAPID_VOLTAGE_COLLAPSE
4820.0,-0.022947288293379803,0.11688259609449686,10.077620279919516,-4.6962077034100345,-0.051761449538683446,-6.462423241465945,51.000640579858505,37.775141000000005,-122.4194,4.963869323590856,-0.01048203659404627,-0.06970789128006968,3,16.287754682679537,0,10.07832419728374,7.988739587260641,4.963880390861317,40.97562327354689,-0.2570356078877012,1.2361057198226888,0.144404799568538,17.50115076994753,0.5673995109945196,False,False,0,0.05,NORMAL_FLIGHT
4840.0,0.10099745579609143,0.3952881169030971,9.633032304673318,6.662757338325639,-0.8693691015729317,-4.785542667177182,51.03309524907788,37.775142,-122.4194,4.650806193505003,-0.013856762339741077,-0.0072329001302306895,3,16.2844638424028,0,9.641668142200384,8.24921551443258,4.650826836102054,21.83280275416779,-1.622733460968817,-0.16454201383684364,0.14886193636920247,17.50115076994753,-0.13870035792201918,False,False,0,0.05,NORMAL_FLIGHT
4860.0,0.1731510388340243,-0.31284832234221027,10.019606644055113,4.644660067661076,6.692960691478033,5.156606300833943,51.07912072783117,37.775143,-122.4194,4.9635516351642925,-0.2567435909739,-0.07376262652708546,3,16.27762504936051,0,10.02598487215271,9.641534032693958,4.970187331122268,19.215836497616312,-2.3012739376643054,-0.34193965211457567,0.10952557890797822,16.925231264274384,-0.0964899984209211,False,False,0,0.05,NORMAL_FLIGHT
4880.0,-0.24005928141115526,0.3234425149937248,9.817563260262025,-3.0245338196408738,-3.5255526008298026,16.218737477850514,51.15723398336392,37.775144000000004,-122.4194,5.137687303974934,-0.04473629491612157,-0.07010635309791871,3,16.276498634813798,0,9.825822707964145,16.870826042100074,5.137882070416569,10.00810820942828,-3.905662776637797,-0.05632072733554594,0.11035389244313012,16.925231264274384,-1.0740230621890134,False,False,0,0.05,NORMAL_FLIGHT
4900.0,-0.06690024716818968,0.020871187504642588,9.34706453161714,2.488941547088887,-6.7480262785596405,-5.198341457252261,51.30449629786067,37.775145,-122.4194,5.067956604427846,0.08520150349084946,0.04868859503005719,3,16.255483363832624,0,9.347327244071117,8.874313640341109,5.068672749405009,23.924773194651383,-7.363115724837499,-1.0507635490586864,0.08946846287637983,16.870826042100074,-3.089964301599224,False,False,0,0.05,NORMAL_FLIGHT
4920.0,-0.09498906223219124,-0.17975680966462565,9.859288429611171,2.6870600141019034,0.09997743103209636,-13.32449780998205,51.317022008048454,37.775146,-122.4194,5.3041328345962375,0.1563961336859704,-0.09015654953035161,3,16.265278333605224,0,9.861384475357873,13.593105932579116,5.306438059345821,25.70286156433781,-0.6262855093890352,0.4897484886299708,0.06693679142181484,16.870826042100074,-3.1638142818994908,False,False,0,0.05,NORMAL_FLIGHT
4940.0,-0.1306658465147424,-0.266062725147798,10.46886694264584,3.21150617505588,-1.9991336714326324,6.3141860627240645,51.283867399357185,37.775147000000004,-122.4194,4.947405017196859,-0.08302346336672846,-0.07681942350054823,3,16.30742684054154,0,10.473062493844928,7.360655744115234,4.948101585421833,30.583900924352747,1.6577304345634758,2.1074253468158943,0.1641219667592073,16.870826042100074,-2.507721502793032,False,False,0,0.05,NORMAL_FLIGHT
4960.0,0.3530908480562194,-0.0378240781554067,9.957895937554339,-8.471279479975388,16.88691459541323,7.9906807314229935,51.30651111569693,37.775148,-122.4194,5.097462632610664,0.04622523292930485,-0.1372791249746409,3,16.286236253433774,0,9.964225775795658,20.512957834797184,5.097672220045283,25.441835902463517,-1.1321858169871746,-1.0595293553883778,0.1612018461477568,20.512957834797184,-2.273903878657606,False,False,0,0.05,NORMAL_FLIGHT
4980.0,0.08099634219219111,0.18433002238489188,9.792744674098362,5.03303270516314,3.382537382199875,0.061314504352268526,51.29320046817661,37.775149,-122.4194,5.158548035261155,0.10468790323232878,-0.050393067996133946,3,16.278116073695543,0,9.794814251259835,6.064382641428997,5.15961019740638,8.470576226791149,0.6655323760160314,-0.40600898691156573,0.1624568392315545,20.512957834797184,-1.3596648481268403,False,False,0,0.05,NORMAL_FLIGHT
5000.0,-0.25217679086700906,-0.025509824075506844,10.13260302058707,-2.848494814628657,-2.0467028760931214,-5.581332596574507,51.33949877466922,37.775150000000004,-122.4194,5.468571401657481,0.0011208153195899086,0.1311602029723922,3,16.28728547015537,0,10.135772681832725,6.591979135704188,5.46857151651627,17.047921528644494,-2.314915324630462,0.45846982299142525,0.0735763986226118,20.512957834797184,-0.3500247680854329,False,False,0,0.05,NORMAL_FLIGHT
5020.0,0.18357238941095522,0.3022309860494695,9.873200539560933,-1.7891396672063344,-5.280557845935433,9.943787309920463,51.27464055985093,37.775151,-122.4194,5.028953098223528,-0.22832804575272303,-0.08459336401029685,3,16.30989108520984,0,9.879530924364213,11.400184997533009,5.034133784536252,12.812087873425604,3.24291074091434,1.1302807527235004,0.07196854266444812,20.512957834797184,0.4238144819752421,False,False,0,0.05,NORMAL_FLIGHT
5040.0,0.4244312394025267,-0.2902351380103118,9.872860269078839,13.189408761301,-9.401442052843924,5.280360045479643,51.39305728697095,37.775152000000006,-122.4194,4.7911625642271956,0.024728999957425234,-0.07316332651872413,3,16.28577705684073,0,9.886240347324765,17.03613272886671,4.79122638165752,0.3354711480276329,-5.920836356001047,-1.205701418455618,0.016557154412176613,20.512957834797184,-1.0918988761376625,False,False,0,0.05,NORMAL_FLIGHT
5060.0,0.2064930521102294,-0.0024177895692109124,9.482512448352269,1.5093669036050588,-5.126095428687165,-7.684355169034928,51.43585969170973,37.775153,-122.4194,5.1695857506710565,0.07614306240608931,0.019392194648153553,3,16.295649903829226,0,9.484760806653583,9.359719929441242,5.170146477566551,20.07397703355913,-2.1401202369389694,0.49364234942483876,0.05483692026328085,17.03613272886671,-1.2934857601280214,False,False,0,0.05,NORMAL_FLIGHT
5080.0,-0.3038739931908027,-0.2504786888826238,9.88015440773688,-1.9316123772358775,0.5747088587956587,0.49094731305671496,51.35165949081992,37.775154,-122.4194,5.373145471193691,-0.09474228950184589,-0.03707964337995265,3,16.267059899150237,0,9.887999297028928,2.074233813355345,5.373980680652781,20.161924518767282,4.210010044490531,-1.4295002339494545,0.05464423536040501,17.03613272886671,-0.5845902264331215,False,False,0,0.05,NORMAL_FLIGHT
5100.0,-0.09684681457325028,0.07272637652499357,10.120633024925084,-11.02647186377953,7.136643257973847,-13.517075320246466,51.31620804570417,37.775155000000005,-122.4194,4.935490257954676,-0.0254154530874387,0.222815443334965,3,16.270768971770458,0,10.121357678520194,18.847442372044046,4.935555696334624,11.667919074563304,1.7725722557873524,0.1854536310110788,0.05266112105339102,18.847442372044046,0.23290728965044138,False,False,0,0.05,NORMAL_FLIGHT
5120.0,0.25338222983732456,0.17737747801946008,9.559181354369993,6.948820669731778,5.608445711939595,6.858904564379201,51.357012097909866,37.775156,-122.4194,5.168216307721283,-0.11554960421287641,-0.01625279646762567,3,16.289370683274058,0,9.564183890423731,11.259899814257988,5.169507859983383,27.858689404823167,-2.0402026102846804,0.930085575179973,0.06820547509383851,18.847442372044046,-0.8237153805893627,False,False,0,0.05,NORMAL_FLIGHT
5140.0,-0.14153389312375617,-0.08415235873621066,10.237348746374085,-6.726048354043012,1.145474158231897,-2.622335693828559,51.41582930071844,37.775157,-122.4194,5.245745611045784,-0.25701475485803527,0.033521834621737176,3,16.319293794526924,0,10.23867290312913,7.309478914343286,5.252038042514624,33.72445063526994,-2.940860140428825,1.496155562643331,0.11019868914739253,18.847442372044046,-0.22772013747491826,False,False,0,0.05,NORMAL_FLIGHT
5160.0,0.0887638856292457,-0.5208427713254269,9.782488192756462,-5.017194517497518,-1.6158383285124234,-4.357108323847371,51.35221741935684,37.775158000000005,-122.4194,5.203413108794031,0.10270044117876564,0.0943768784799322,3,16.30918579233787,0,9.796745962882449,6.838681691381535,5.20442651609069,22.09634701233405,3.1805940680801115,-0.5054001094526583,0.07122549625468926,18.847442372044046,0.8364227235288979,False,False,0,0.05,NORMAL_FLIGHT
5180.0,0.15492681068586736,0.03978962935929891,9.543669146538438,-1.656761495439246,1.3440617820607712,-0.3287448515243416,51.38786871187849,37.775159,-122.4194,5.025111704494716,-0.0003748533801851623,0.09245778658628506,3,16.29139643132409,0,9.545009497630872,2.15857219109536,5.025111718476003,12.58682326257885,-1.7825646260824612,-0.8894680506889685,0.10054916376683681,18.847442372044046,-0.3620922105857005,False,False,0,0.05,NORMAL_FLIGHT
5200.0,-0.1853860943156166,0.08734771034670191,10.109289623076073,7.082058958501463,-2.5931899874228796,0.40307699330247826,51.290501718245395,37.77516,-122.4194,4.8603052483573705,0.1597674996704983,0.023328758155737934,3,16.281918119925574,0,10.11136658962091,7.5526594299684175,4.862930470525068,28.317854599501935,4.868349681654749,-0.4739155699258646,0.09922950449513487,11.259899814257988,0.2570632745877788,False,False,0,0.05,NORMAL_FLIGHT
5220.0,-0.011905071212360016,0.08085895099233953,9.72396172927852,3.866199933328796,8.591819978819379,8.949300615655606,51.286034924971844,37.775161000000004,-122.4194,4.983744090397283,0.08573221919061773,-0.016112748668600123,3,16.306060406622297,0,9.724305199506516,12.994493217601262,4.984481434610545,19.353069505719755,0.22333966367753533,1.2071143348361346,0.08137891238066292,12.994493217601262,0.7097717293802219,False,False,0,0.05,NORMAL_FLIGHT
5240.0,-0.6482534680138146,0.24715643836443082,10.037854466245832,-0.7891875492012999,-0.9459509063753999,5.910905313252215,51.341637267077004,37.775162,-122.4194,5.091720090775526,-0.035420976166544896,0.2024028536379257,3,16.29308216075805,0,10.06180108873895,6.0379170023543765,5.091843293774832,16.8747944616217,-2.7801171052580287,-0.6489122932123337,0.05620084287451379,12.994493217601262,0.7419203364143812,False,False,0,0.05,NORMAL_FLIGHT
5260.0,-0.20487752826685798,-0.21421073592980977,9.722472410322439,1.5414603181941051,-0.4316892912336344,-1.5640927879280269,51.31406148057185,37.775163,-122.4194,5.181644504818346,-0.008318066010440868,-0.009976027531426665,3,16.23046492863713,0,9.726989812396091,2.2380441921421785,5.181651181287323,16.740563817142906,1.3787893252576566,-3.1308616060460537,0.05895628632934066,12.994493217601262,0.3815593878498902,False,False,1,0.9,RAPID_VOLTAGE_COLLAPSE
5280.0,-0.050513630278632066,0.1360432210900899,9.792052156941029,-3.0019284643555286,-11.079112125103341,7.636681497189953,51.23871536561495,37.775164000000004,-122.4194,5.066789009599808,0.056617739077017254,-0.044169010442848065,3,16.25440912691483,0,9.793127428411312,13.786848961065875,5.0671053310721295,3.306880800761025,3.767305747845029,1.1972099138850112,0.03543002107755387,13.786848961065875,1.4915334626353882,False,False,0,0.05,NORMAL_FLIGHT
