timestamp_ms,ax,ay,az,gx,gy,gz,baro_alt,gps_lat,gps_lon,gps_vel_n,gps_vel_e,gps_vel_d,gps_fix,v_batt,gt_crash_critical,gt_battery_critical,accel_mag,gyro_mag,gps_speed_2d,jerk_accel,baro_sink_rate,v_batt_rate,gps_loss_in_flight,freefall_indicator,impact_indicator,accel_mag_rolling_var,gyro_mag_rolling_max,baro_sink_rate_rolling_mean,accel_saturated,gyro_saturated,is_crash_critical,is_battery_critical,confidence_crash,confidence_battery,crash_reasons,battery_reasons
0.0,0.4170118303279885,0.02954794705271425,10.167173532983588,-8.951540957702758,8.507801716342303,-6.651992623330719,49.96165824777254,37.77490107907601,-122.41939985678326,4.070837293758564,0.18193934776834408,0.16929959819143497,3,16.51048969928244,0,0,10.175764816347245,14.027180095189244,4.0749010047511485,0.0,0.0,0.0,0.0,0.0,0.0,0.0,14.027180095189244,0.0,False,False,0,0,0.05,0.05,NONE,NONE
20.0,0.18433693168872378,0.2524025203561681,10.267241756594592,5.946719730930369,-1.951543767674758,7.1127502125866044,49.91871953736815,37.77490223569886,-122.41939989893505,4.054795877563363,-0.09691529349876032,0.033588912431799955,3,16.493229988771375,0,0,10.271997878943811,9.474345055044045,4.055953917738562,4.811653129828297,2.1469355202196283,-0.8629855255533059,0.0,0.0,0.0,0.004630401168357375,14.027180095189244,1.0734677601098142,False,False,0,0,0.05,0.05,NONE,NONE
40.0,-0.050384439342917774,-0.02379526640984787,10.272685016777968,-5.183248665738869,3.5931266397928345,-6.031680236293447,49.91860748297416,37.77490317461701,-122.41939977665615,3.8927824614791335,0.08900249278210814,0.10820825536056648,3,16.51350113686352,0,0,10.27283613518516,8.726843200915534,3.8937997812061385,0.041912812067490535,0.005602719699382419,1.0135574046072904,0.0,0.0,0.0,0.0031140576585289115,14.027180095189244,0.7175127466396702,False,False,0,0,0.05,0.05,NONE,NONE
60.0,-0.0377279868726281,-0.09172964904061354,10.5857074404302,0.7820306465640536,0.4054596801881464,18.691833639842617,49.96321433493173,37.774904183998906,-122.41939968856407,4.045375779990738,0.46594856558204417,0.05707300409866097,3,16.515085161919128,0,0,10.586172100617194,18.712579039351464,4.072121470082104,15.666798271601667,-2.2303425978783764,0.07920125278033652,0.0,0.0,0.0,0.032000279477525796,18.712579039351464,-0.019451089489841422,False,False,0,0,0.05,0.05,NONE,NONE
80.0,0.22901295185925052,-0.1150781512112575,10.056234045846399,-4.336166406474953,2.0179218676202275,-8.799742161048567,49.99259172780978,37.77490526911689,-122.41939995172744,3.9861449763896055,0.33194301852360053,0.26125698743053355,3,16.52512596112708,0,0,10.05949964450746,10.015478514249706,3.9999422421258344,26.333622805486723,-1.4688696439026927,0.50203996039766,0.0,0.0,0.0,0.03827863889155743,18.712579039351464,-0.3093348003724117,False,False,0,0,0.05,0.05,NONE,NONE
100.0,0.29008240925676054,0.1001705335470165,10.254629308941045,4.443915008565538,-11.102205357008948,-7.563681708565808,49.96862479746355,37.77490616968147,-122.41940002900085,3.9398970227350567,-0.025804690779201153,-0.24874469148828415,3,16.505273589089605,0,0,10.259220448150238,14.149792414768678,3.939981526837756,9.986040182138911,1.198346517311677,-0.9926186018738292,0.0,0.0,0.0,0.03560359187592199,18.712579039351464,-0.06966549691007629,False,False,0,0,0.05,0.05,NONE,NONE
120.0,-0.6549904995704814,-0.16545011810850235,10.312124069038761,-8.374378014256507,10.869693660037537,-15.831259997574378,49.91661036931396,37.7749072089826,-122.41940013047075,4.366359125109879,0.3308780758978277,0.045508201303053414,3,16.502079473642773,0,0,10.334229004205309,20.95016087049266,4.378877973926672,3.750427802753542,2.6007214074795115,-0.15970577234156735,0.0,0.0,0.0,0.03581969218310886,20.95016087049266,0.02109168054190036,False,False,0,0,0.05,0.05,NONE,NONE
140.0,-0.3313236429819857,0.13986144863888567,9.827686473610276,-7.182847554166095,13.66111944180871,1.73792606364654,49.94924612955731,37.77490816397216,-122.41940019012121,3.9723238066301048,0.08507881458299547,0.08046024697819558,3,16.465863702921197,0,0,9.834264487230177,15.531898479981631,3.9732348067300443,24.998225848756572,-1.6317880121675898,-1.810788536078789,0.0,0.0,0.0,0.08076977544865346,20.95016087049266,-0.3063864658314941,False,False,0,1,0.05,0.9,NONE,RAPID_VOLTAGE_COLLAPSE
160.0,0.11499715458977036,0.24111364534201987,9.529589027904523,2.0343355026581347,7.644108036040285,13.998861203376833,49.94838229917485,37.77490920192002,-122.41940021020822,4.4383507908724855,-0.21669380604748123,-0.027407214945912015,3,16.5325207577733,0,0,9.533332427660966,16.079148721105856,4.4436374681580135,15.046602978460566,0.04319151912284269,3.332852742605219,0.0,0.0,0.0,0.10690173280847,20.95016087049266,0.14832035756874973,False,False,0,0,0.05,0.05,NONE,NONE
180.0,0.025512911643556607,0.0066949731544089465,9.823426602041776,4.757230297773939,4.197049834502232,17.15239744993558,49.94394514846463,37.77491007244893,-122.41940027239484,3.9497026129478963,-0.04989841043752775,-0.21362296431175998,3,16.489272711460323,0,0,9.823462013823239,18.288007154961146,3.9500177951613877,14.50647930811364,0.22185753551120513,-2.162402315648926,0.0,0.0,0.0,0.11150737106367292,20.95016087049266,0.4864657934515293,False,False,0,1,0.05,0.9,NONE,RAPID_VOLTAGE_COLLAPSE
200.0,0.26338819520502044,-0.6226968392607652,9.742126088092473,6.7703358285243525,1.1944357627654494,13.99670388530402,49.902877600838394,37.77491094337816,-122.4194001867663,4.092158529516374,-0.13797847440903263,-0.03437824997068722,3,16.502914198280564,0,0,9.765559144836033,15.59396818244985,4.094484032218695,2.8951434493603045,2.053377381311705,0.68207434101204,0.0,0.0,0.0,0.08562612805644837,20.95016087049266,0.6574719662515349,False,False,0,0,0.05,0.05,NONE,NONE
220.0,0.4060106530637288,0.1603878801600629,10.36969911789806,-14.4147485510213,0.18135765341793236,11.835976397532702,49.96669997085884,37.77491205620969,-122.41940033376967,3.8526961577748136,-0.15394530676665916,-0.1644988661572485,3,16.488971067637824,0,0,10.378883789610484,18.65229754401787,3.8557705898572716,30.666232238722557,-3.1911185010223164,-0.6971565321370221,0.0,0.0,0.0,0.0966541074140788,18.65229754401787,-0.5008960154488307,False,False,0,0,0.05,0.05,NONE,NONE
240.0,-0.37515875439637586,-0.04029433944896447,10.010764121532869,3.712010778916137,-9.13183374197454,-16.688582124610083,49.942536463791335,37.77491305603765,-122.41940023119454,4.207710428642568,0.1895118883309515,0.2424976164989759,3,16.51166634780926,0,0,10.017872330078958,19.38241947858186,4.211975997928548,18.050572976576262,1.208175353375296,1.1347640085718425,0.0,0.0,0.0,0.1003820123618499,19.38241947858186,0.06709665765974648,False,False,0,0,0.05,0.05,NONE,NONE
260.0,-0.06945792288231584,0.11789331080868677,10.143446854248236,3.27213917878215,2.558915119373801,-4.288550226823,49.92621371276833,37.774914049477076,-122.41940018336287,3.7456581764704553,-0.059320449387181465,0.022533299293415923,3,16.512447329428298,0,0,10.144369735017696,5.970477739801444,3.746127879647927,6.3248702469368645,0.81613755115022,0.03904908095186954,0.0,0.0,0.0,0.061863873179213824,19.38241947858186,0.22168586406522195,False,False,0,0,0.05,0.05,NONE,NONE
280.0,0.29849875487731087,0.17148222587697942,9.524179412060622,-0.16225037617317695,6.777092786738615,-20.717985162967494,49.90783644218009,37.77491505672877,-122.41940026993915,4.01696954726777,-0.0214462244982732,-0.09179028925045526,3,16.471030175731993,0,0,9.530398791948553,21.798858250779425,4.017026796552628,30.698547153457145,0.9188635294119507,-2.0708576848152305,0.0,0.0,0.0,0.10872360939389564,21.798858250779425,0.36108706284537107,False,False,0,1,0.05,0.9,NONE,RAPID_VOLTAGE_COLLAPSE
300.0,0.21545383171685753,0.5834079319209178,9.81861956963248,-0.862842262083494,1.2945839450954315,-8.67201100311301,49.906168844140296,37.77491617205351,-122.41940015129119,4.1974558413931256,-0.19751674408171757,-0.0846565285299882,3,16.49262402033404,0,0,9.838296367857579,8.810460782402322,4.202100475314449,15.394878795451294,0.0833799019897441,1.0796922301024026,0.0,0.0,0.0,0.10244046899197036,21.798858250779425,-0.03291243301902114,False,False,0,0,0.05,0.05,NONE,NONE
320.0,-0.1042615109483607,-0.004863127515632165,10.276558984098658,2.3675297450919475,0.7248209622066011,12.6416774092559,49.91539021196697,37.77491699683987,-122.41940007015228,3.7350412754613123,0.04899769520149095,-0.10766024757709595,3,16.47996996509183,0,0,10.277089017145531,12.881869827041422,3.7353626468570256,21.93963246439763,-0.4610683913337965,-0.6327027621106041,0.0,0.0,0.0,0.08431073462430515,21.798858250779425,0.5130975889186828,False,False,0,0,0.05,0.05,NONE,NONE
340.0,-0.062384104229617265,-0.0018550863691603513,9.643025450452814,-3.9066317132580073,-0.5435846245023268,-2.876542431360882,49.95648045097739,37.77491800055167,-122.41940011599337,3.790149098254928,-0.20166096116201923,-0.1496924559853656,3,16.49702713609406,0,0,9.64322741906913,4.881777539631246,3.7955101541504845,31.69307990382011,-2.0545119505207765,0.8528585501116126,0.0,0.0,0.0,0.10184240859102942,21.798858250779425,-0.13943987186053164,False,False,0,0,0.05,0.05,NONE,NONE
360.0,0.23591933870976725,-0.3785722666628386,9.621446436139403,1.943159078298235,0.2594224851942023,19.891602728177055,49.971000982296985,37.774918767023415,-122.41940004471807,4.213152530965002,0.188073231043733,0.11894810288349979,3,16.476790908103595,0,0,9.631781061619035,19.987972041330707,4.217348193997269,0.5723178725046907,-0.7260265659798648,-1.0118113995233102,0.0,0.0,0.0,0.0883464615499407,21.798858250779425,-0.4478726952865486,False,False,0,0,0.05,0.05,NONE,NONE
380.0,-0.19157765955373465,-0.171370135365879,9.870309280670702,1.0428314800702836,3.3614979741046476,-0.5093574471301923,49.92117743243231,37.774919661632836,-122.41939994431331,4.138945186011675,-0.36940016606761933,0.06231683657576119,3,16.476797481503308,0,0,9.873655605652326,3.5562074088391156,4.1553969407867655,12.093727201664528,2.4911774932338204,0.0003286699856275277,0.0,0.0,0.0,0.06835912975359011,19.987972041330707,-0.13340990252217466,False,False,0,0,0.05,0.05,NONE,NONE
400.0,0.05205718277082965,0.2222619066243598,9.56583276715774,-5.692916532579396,-4.105694875516624,-8.86730067763778,49.89573925197857,37.77492059532246,-122.4194000926418,4.0814716510004505,0.011102336576832227,0.1286881061180356,3,16.481752831024025,0,0,9.568556152034802,11.309069385470881,4.081486751148141,15.254972680876211,1.2719090226870122,0.24776747603585392,0.0,0.0,0.0,0.08486852743325907,19.987972041330707,0.10429592161727896,False,False,0,0,0.05,0.05,NONE,NONE
420.0,0.3521807312604749,0.37413027253297954,9.93994003109442,7.13238932362147,-4.380498384929329,-4.041605421544633,49.82996351976676,37.77492164110572,-122.41940022143788,3.6215790770171323,-0.034629393471282695,0.20780112357828423,3,16.52542688277284,0,0,9.953211167761392,9.294854380114675,3.621744635666691,19.23275078632951,3.288786610590577,2.1837025874408056,0.0,0.0,0.0,0.028404306670323193,19.987972041330707,0.8542669220021537,False,False,0,0,0.05,0.05,NONE,NONE
440.0,-0.3722760026217268,0.0075744161531523385,9.686705793276168,-6.8854626570763,7.783162350983187,-8.575846811860831,49.78101205541859,37.774922606366204,-122.41940024316665,4.16315279058936,-0.2090342699924441,0.058586337219661666,3,16.497054520418352,0,0,9.69385970186273,13.473394550901341,4.168397351959533,12.967573294933121,2.4475732174082054,-1.418618117724435,0.0,0.0,0.0,0.026616836480951863,19.987972041330707,1.75468395558795,False,False,0,0,0.05,0.05,NONE,NONE
460.0,-0.36895213333293836,0.35577335794249487,9.759609686010073,4.323269101008211,0.5426825460390166,-3.1530545325019173,49.78204495560372,37.774923738115625,-122.4194000642549,4.36300079953618,0.166893526177641,0.15375926290227462,3,16.500412717521574,0,0,9.773058967497036,5.378374563977356,4.366191638697659,3.9599632817153285,-0.05164500925651794,0.1679098551610636,0.0,0.0,0.0,0.022666669937191446,13.473394550901341,1.8895602669326195,False,False,0,0,0.05,0.05,NONE,NONE
480.0,0.24771157919083026,0.22056074307556356,9.735041578858784,-2.599704382252588,-3.456438958048917,-7.983081003741233,49.78948880969169,37.77492481694887,-122.41940003879637,3.872778883790081,0.18634269386566665,-0.0342348936045601,3,16.47879773994691,0,0,9.740690047936058,9.079373076271056,3.8772593261590664,1.6184459780489213,-0.3721927043983442,-1.0807488787332176,0.0,0.0,0.0,0.01947542584064065,13.473394550901341,1.3168862274061865,False,False,0,0,0.05,0.05,NONE,NONE
500.0,-0.22080760652737455,-0.4501629785002396,9.72295596426112,-7.826335384111847,-2.292395896902998,-2.0611536899453786,49.741955387465055,37.77492583133735,-122.41940006023736,3.9690951037695874,0.1294765124241773,-0.010188494040838467,3,16.519599214760664,0,0,9.735875686823114,8.41159669898137,3.971206379683287,0.24071805564718218,2.376671111331774,2.040073740687731,0.0,0.0,0.0,0.01024012025705259,13.473394550901341,1.537838645135139,False,False,0,0,0.05,0.05,NONE,NONE
520.0,-0.09154596893894036,0.15058261459630243,9.66645319014986,3.6003607073867867,4.6830496035354034,-21.292667260582288,49.70831588822636,37.7749268848009,-122.41939993883865,4.28395382593599,0.2841483895248046,-0.07132900055663587,3,16.494771112396577,0,0,9.66805942604854,22.09686018153576,4.293367057452827,3.3908130387287017,1.6819749619347846,-1.2414051182043195,0.0,0.0,0.0,0.0017124639884191942,22.09686018153576,1.2164763154039804,False,False,0,0,0.05,0.05,NONE,NONE
540.0,-0.38367625825585305,0.0018653013638255875,9.261084474740134,-5.651055084146548,10.318756727585592,-1.5851742568559242,49.70065357711714,37.77492768951503,-122.41940007915449,3.619775657496769,0.21360583775901293,0.00011306200098233009,3,16.469687582249275,0,0,9.269028891894292,11.871139009873914,3.62607270535643,19.951526707712386,0.3831155554610888,-1.2541765073651234,0.0,0.0,0.0,0.043851726895361924,22.09686018153576,0.803584783014557,False,False,0,0,0.05,0.05,NONE,NONE
560.0,-0.08789387778464008,-0.12491002024916968,10.120842333736466,-11.344858317757339,14.018848771646688,7.2527538960013365,49.66130533825291,37.77492874925165,-122.41940008651534,4.428873228775222,-0.12668109256807722,0.14362920119528894,3,16.50447923589782,0,0,10.121994733809283,19.43801353555065,4.430684617051422,42.64829209574952,1.9674119432114168,1.7395826824271765,0.0,0.0,0.0,0.09188110733977461,22.09686018153576,1.207396173508144,False,False,0,0,0.05,0.05,NONE,NONE
580.0,0.15997952874627663,0.11622693804620826,9.78466361472596,7.833714078753081,-7.720654928077743,12.538891257874337,49.65395646865615,37.7749299928668,-122.41940017903372,3.7092977100361315,0.009068896821377846,-0.043301410283413715,3,16.501093918389245,0,0,9.786661545393686,16.679310020588467,3.7093087963350864,16.766659420779817,0.3674434798380588,-0.16926587542869242,0.0,0.0,0.0,0.0930751914632485,22.09686018153576,1.3553234103554246,False,False,0,0,0.05,0.05,NONE,NONE
600.0,0.1723097916656649,-0.09264253065567407,9.59157968269369,3.0587429052011723,-8.213228220968531,11.796578363692767,49.64761613888993,37.774931131192965,-122.41940027299499,3.6280060251571657,-0.06846777224773325,-0.12860536981570642,3,16.4674284484413,0,0,9.593574626397219,14.695995613110965,3.628652029943525,9.654345949823373,0.3170164883108839,-1.6832734973972308,0.0,0.0,0.0,0.09573400097980102,22.09686018153576,0.9433924857512466,False,False,0,1,0.05,0.9,NONE,RAPID_VOLTAGE_COLLAPSE
620.0,0.18931309131907298,-0.32497532544771934,9.896095498938038,0.1473092528321696,-10.747402546914042,-4.120847777150717,49.680230708632116,37.77493215377274,-122.4194001977218,3.9999912824898134,-0.4696777575783088,-0.06848987221689072,3,16.504319764257627,0,0,9.903239597868787,11.511287848187639,4.027471595921973,15.48324857357839,-1.630728487109323,1.8445657908163327,0.0,0.0,0.0,0.1044671403316442,19.43801353555065,0.28085179594242504,False,False,0,0,0.05,0.05,NONE,NONE
640.0,-0.3576374425799516,-0.43066012524568686,9.181223709922115,-3.1522907992329063,-2.745185386689672,13.054018245175891,49.66074915940926,37.77493311996534,-122.41940017762977,3.455426709128562,-0.08087052426910808,0.12069279026793103,3,16.48735419630355,0,0,9.19827383238006,13.70694613820336,3.456372923145679,35.24828827443631,0.974077461142997,-0.8482783977038721,0.0,0.0,0.0,0.1219497607328961,19.43801353555065,0.3990441770788067,False,False,0,0,0.05,0.05,NONE,NONE
660.0,-0.10721982473329825,0.020563173182345705,10.253197268059687,-5.753167007068595,11.690398520035657,-12.816588974537462,49.641938661930695,37.774934161695604,-122.41940033528495,4.065085040818871,-0.23803610137523484,0.016260162511536627,3,16.476004750923877,0,0,10.253778481742904,18.276468507638715,4.072048326659113,52.77523246814217,0.9405248739280836,-0.5674722689835932,0.0,0.0,0.0,0.1518619940510948,18.276468507638715,0.19366676322214005,False,False,0,0,0.05,0.05,NONE,NONE
680.0,-0.17125296444499094,-0.07109983260159074,9.955922504131198,-3.1056806418743865,-0.06390625463455243,-7.021519905649226,49.6285823247237,37.7749352736155,-122.4194001807912,4.265691744292094,0.17899430168325917,0.17587150421173559,3,16.463381444825348,0,0,9.957649103693763,7.677960539370011,4.269445516382286,14.806468902457048,0.6678168603496459,-0.6311653049264621,0.0,0.0,0.0,0.161091128896759,18.276468507638715,0.2537414393244575,False,False,0,0,0.05,0.05,NONE,NONE
700.0,-0.03141021601364619,-0.01816095852354697,10.192360544182403,12.600912793326664,-6.207005888500378,7.580518204189362,49.63976112784164,37.77493634734312,-122.41940028171494,4.435597018720869,0.3040594813979064,-0.09821551677746744,3,16.47436916592193,0,0,10.192425122839545,15.961647207257409,4.446006419328859,11.738800957289097,-0.5589401558967921,0.5493860548291707,0.0,0.0,0.0,0.17660485899927947,18.276468507638715,0.07855011048292226,False,False,0,0,0.05,0.05,NONE,NONE
720.0,0.2861468099295916,0.6317023033695067,9.77182003668709,-2.3410565777132675,-8.169683232177828,-6.081062071543338,49.702630570442686,37.774937394943564,-122.41940021150705,3.738643924968957,-0.06302854940840538,0.0861285221728784,3,16.480957682668787,0,0,9.796397022697402,10.45005195834667,3.7391751758573464,19.801405007107142,-3.143472130052416,0.3294258373427894,0.0,0.0,0.0,0.17877219588959384,18.276468507638715,-0.22399861810569632,False,False,0,0,0.05,0.05,NONE,NONE
740.0,0.08180244646403952,-0.4588244255435643,9.946184459816235,-3.3514460879938452,7.312218665317809,15.766539836875408,49.681089889111455,37.77493844525329,-122.41940032677988,3.8616076910027455,0.10919108572194032,0.09362944363724311,3,16.478884377171248,0,0,9.957097810226275,17.699844946155054,3.8631511298954755,8.035039376443631,1.0770340665615663,-0.10366527487697397,0.0,0.0,0.0,0.03539191615575697,18.276468507638715,-0.20340729702198246,False,False,0,0,0.05,0.05,NONE,NONE
760.0,-0.03418186011925841,0.030217801201517947,10.21856148839,0.671782955696812,3.1264407349911436,16.023774894018914,49.70290101208307,37.77493947077103,-122.41940037965928,3.289060592543733,0.06271166357969736,-0.22741797306570158,3,16.50101011688598,0,0,10.218663337593519,16.339745587467622,3.289658391713806,13.078276368362207,-1.0905561485806459,1.1062869857365598,0.0,0.0,0.0,0.031735325000354704,17.699844946155054,-0.6096235015237284,False,False,0,0,0.05,0.05,NONE,NONE
780.0,0.04479847813160454,0.21369712254379167,9.656878134837996,0.3381549933762814,-3.425339680798543,-5.5903954138094525,49.63763002312345,37.774940508847685,-122.41940024770189,4.547830498510107,0.2184341606201084,0.03974536491479189,3,16.423363329311577,0,0,9.659346182580816,6.5650454386196095,4.5530732176964275,27.96585775063516,3.263549447980907,-3.88233937872009,0.0,0.0,0.0,0.05949517769868911,17.699844946155054,-0.09047698399747617,False,False,0,1,0.05,0.9,NONE,RAPID_VOLTAGE_COLLAPSE
800.0,0.24224426805621704,-0.1489541359765772,9.748579828477205,0.5426719493739744,3.0985294622996493,19.372402960496224,49.63178771141117,37.774941413953094,-122.41940015660208,4.3243645742916526,0.003550528678338727,-0.16270753201131377,3,16.5059166829805,0,0,9.752726710629354,19.62614007229183,4.324366031875947,4.669026402426901,0.2921155856139279,4.127667683446212,0.0,0.0,0.0,0.04811581296104462,19.62614007229183,0.07973416430466784,False,False,0,0,0.05,0.05,NONE,NONE
820.0,0.0014675226082606493,-0.11909079128572556,9.728156037831376,4.955783607983091,5.680936041908099,2.638908275006349,49.59429264596579,37.77494223697255,-122.41940009939897,3.924635117156349,0.16977211582941312,-0.11854272039342531,3,16.47423666214816,0,0,9.728885068011992,7.987281287478321,3.9283054074409773,1.1920821308680551,1.8747532722692029,-1.5840010416170003,0.0,0.0,0.0,0.05174302680263521,19.62614007229183,1.0833792447689916,False,False,0,1,0.05,0.9,NONE,RAPID_VOLTAGE_COLLAPSE
840.0,0.14762636041079327,0.05250733317935314,10.064160693828848,-5.508737979519054,5.793312892492903,16.07744376424825,49.546298788564634,37.77494312976318,-122.41940019639533,4.2206066274124465,-0.04145998730223616,-0.06182472828391462,3,16.472994990415238,0,0,10.06538032234924,17.95530190194209,4.220810257984238,16.824762716862374,2.3996928700576348,-0.06208358664618885,0.0,0.0,0.0,0.05916400598268508,19.62614007229183,1.3479110054682053,False,False,0,0,0.05,0.05,NONE,NONE
860.0,-0.09811909337983737,-0.4210663134405859,9.494583643323889,2.5797678346070536,7.236723179662178,-21.003893024735206,49.56364640447238,37.77494427572661,-122.41940025239492,4.8360629621061335,-0.15790234977309103,0.05313521300274136,3,16.426398556615105,0,0,9.504422273703629,22.364903010164234,4.838640111179856,28.04790243228057,-0.8673807953872625,-2.3298216900066393,0.0,0.0,0.0,0.04203415263033029,22.364903010164234,1.392546076106882,False,False,0,1,0.05,0.9,NONE,RAPID_VOLTAGE_COLLAPSE
880.0,0.00897786680182362,0.18542639175562042,9.965762449918357,-8.097833513826163,-5.520178799143126,1.674686909270195,49.65017856102204,37.77494519835306,-122.41940024949308,4.26993818064171,0.2483118143042444,0.19313629156298057,3,16.494565513312285,0,0,9.967491397390546,9.942427160217791,4.277152186166036,23.153456184345877,-4.326607827482931,3.4083478348589935,0.0,0.0,0.0,0.04826672194212886,22.364903010164234,-0.12548537898588563,False,False,0,0,0.05,0.05,NONE,NONE
900.0,-0.08268873823819406,0.1771572046966746,10.130666013619322,-1.5512415157059922,3.8092736969531136,-7.777994417052718,49.677240983018045,37.77494624680724,-122.41940013193198,3.6406746663277403,-0.18916986585593631,0.09101290365272081,3,16.483335709177055,0,0,10.132552293578799,8.798529052634418,3.6455859973656577,8.253044809412646,-1.3531210998003473,-0.5614902067614835,0.0,0.0,0.0,0.06742432469781373,22.364903010164234,-0.4545327160687407,False,False,0,0,0.05,0.05,NONE,NONE
920.0,0.2021940183762361,0.11596961427818894,10.023416482141382,-7.609564233863991,-5.778060800913264,18.968145691485194,49.71494459706335,37.774947251844,-122.41940018961044,3.208328220747082,-0.2783198177225851,-0.4406653465579822,3,16.50088553588415,0,0,10.026126338071274,21.238691236085167,3.2203776009932854,5.321297775376266,-1.8851807022652878,0.8774913353548186,0.0,0.0,0.0,0.06267371143267443,22.364903010164234,-1.2065195109756388,False,False,0,0,0.05,0.05,NONE,NONE
940.0,0.013327736085585537,-0.04662774837944498,10.389207110721921,-11.356815507812001,-8.746326643577097,-2.756502925494451,49.795314373382986,37.774948299646745,-122.41940037347482,4.44700595069441,0.18360764301579524,0.04522294819992119,3,16.497088983746128,0,0,10.389320293693089,14.59704753067843,4.450794725898434,18.159697781090767,-4.018488815981769,-0.18982760690118283,0.0,0.0,0.0,0.10409944422515331,22.364903010164234,-2.4901558481835195,False,False,0,0,0.05,0.05,NONE,NONE
960.0,-0.32972550217082713,0.08627445123825588,10.354969621868095,0.9639538437750317,-5.893914605159635,-17.330333896570927,49.79481084462154,37.7749492921376,-122.41940036103216,4.055555341409715,-0.1591166759216605,-0.11093657407076253,3,16.477910212880584,0,0,10.360577110254493,18.33051852383009,4.0586755529104845,1.4371591719298138,0.025176438072449514,-0.9589385432771991,0.0,0.0,0.0,0.03684920485246974,21.238691236085167,-2.311644401491577,False,False,0,0,0.05,0.05,NONE,NONE
980.0,-0.26994517385550615,0.0594636721324268,9.69109653422632,6.761272855474884,-4.763847676792564,15.273391446360753,49.79826465572514,37.77495028344001,-122.41940029117389,3.9346283387570256,0.0887023992252013,0.20682298063846927,3,16.477564570155316,0,0,9.69503782152936,17.369097316430388,3.9356280667484547,33.27696443625667,-0.17269055518021048,-0.017282136263396808,0.0,0.0,0.0,0.07999270804729403,21.238691236085167,-1.480860947031033,False,False,0,0,0.05,0.05,NONE,NONE
1000.0,-0.09399206846456501,0.17272400152443462,9.921788463862546,7.723779329711414,6.222187364844416,4.007328585851759,49.81831812203688,37.77495132201676,-122.41940044010074,3.9890253299287624,-0.31761295223709224,-0.017570900522619223,3,16.47509471625594,0,0,9.92373691767737,10.697245679720151,4.001649793552908,11.434954807400555,-1.0026733155868328,-0.12349269496887416,0.0,0.0,0.0,0.08747838723226722,21.238691236085167,-1.41077139018833,False,False,0,0,0.05,0.05,NONE,NONE
1020.0,0.03718169181709451,-0.014589449840252068,9.671562285932396,2.6891799272315784,9.12075241948315,-0.5491217764077116,49.837802788063,37.77495239395755,-122.41940035890084,3.943821023228156,-0.1320589352472524,0.01140700692093996,3,16.49981600900879,0,0,9.671644760893718,9.524775488370217,3.946031402008227,12.604607839182602,-0.974233301306171,1.2360646376425422,0.0,0.0,0.0,0.12197405101045,18.33051852383009,-1.2285819099965067,False,False,0,0,0.05,0.05,NONE,NONE
1040.0,0.4537297103383453,0.050831469788274325,9.506022219500014,1.4846760261184195,-4.538904512628765,-5.974421968383039,49.912903827451956,37.774953513588976,-122.4194002797596,3.961990227986134,0.19375865480688892,-0.2620151893972193,3,16.46274793734251,0,0,9.516980241967119,7.6485054052141725,3.9667252215108366,7.733225946329991,-3.7550519694477202,-1.853403583313984,0.0,0.0,0.0,0.1078766466266729,18.33051852383009,-1.175894540689697,False,False,0,1,0.05,0.9,NONE,RAPID_VOLTAGE_COLLAPSE
1060.0,0.13812473378191237,-0.006817276035124429,9.788018927554251,2.022062662353272,2.9545030825968874,-4.913328669412708,49.91770409137848,37.774954377946514,-122.41940020827882,3.687727129120169,0.07819353521442934,0.06511464494859873,3,16.48476838836001,0,0,9.788995834277136,6.079360532920429,3.6885560328939313,13.60077961550088,-0.24001319632631635,1.1010225508750082,0.0,0.0,0.0,0.02261123001326262,17.369097316430388,-1.2289324675694502,False,False,0,0,0.05,0.05,NONE,NONE
1080.0,-0.13480623667595928,-0.084156130733627,9.860355921465176,-10.99659519629345,-1.2534987749564919,-5.614323100475047,49.867299593398705,37.77495530457887,-122.41940009444319,4.173580655366821,-0.1444279745931051,0.029634194033855178,3,16.484930975281934,0,0,9.861636470371444,12.410358132080209,4.176078893734792,3.6320318047153854,2.520224898988843,0.00812934609619731,0.0,0.0,0.0,0.02614296858086501,12.410358132080209,-0.6903493767356395,False,False,0,0,0.05,0.05,NONE,NONE
1100.0,0.2317627803306433,-0.3404167333382394,9.6281338897145,2.0843749972614276,-2.9220409379510124,-11.448603721949292,49.85488364166062,37.774956355336556,-122.41940029331758,3.595019633751455,-0.012345026876753663,0.06934786953902554,3,16.44362420676743,0,0,9.636937259158229,11.998061074794602,3.5950408296356016,11.234960560660756,0.6207975869042315,-2.065338425725116,0.0,0.0,0.0,0.018052607009814474,12.410358132080209,-0.3656551962374266,False,False,0,1,0.05,0.9,NONE,RAPID_VOLTAGE_COLLAPSE
1120.0,0.29972167048073295,-0.16029539419324826,9.700568677354344,1.3213125884832098,-3.9138216878801257,-1.3282724501773828,49.792486740736585,37.77495724660607,-122.41940033468589,3.5828792655769557,0.08351583658198306,-0.060584979127714614,3,16.471357195181948,0,0,9.706521537462509,4.339144485138202,3.5838524978940263,3.4792139152139967,3.1198450462017746,1.3866494207258384,0.0,0.0,0.0,0.017884440927093702,12.410358132080209,0.45316047326416253,False,False,0,0,0.05,0.05,NONE,NONE
1140.0,0.004491946778953154,0.3234334542774731,9.176386792989083,0.9336852878020863,-1.803840171300454,-15.903184713635145,49.74573496773943,37.774958292930954,-122.41940032651824,3.9659283231390754,0.16522324966860452,0.03544463409320175,3,16.483648252894337,0,0,9.182086034854835,16.032370118490086,3.969368487115774,26.221775130383662,2.337588649857736,0.614552885619446,0.0,0.0,0.0,0.07133216816620208,16.032370118490086,1.6716885971252538,False,False,0,0,0.05,0.05,NONE,NONE
1160.0,0.2539706025343933,-0.10430958330943582,9.609634006372584,3.643780478319435,-1.6524133008941457,8.249904284748741,49.74973525089844,37.77495926388505,-122.41940028651638,4.126434372645084,0.11358789626491823,0.05238015504917884,3,16.449301806947464,0,0,9.613555392910277,9.168889060222583,4.1279974372478385,21.57346790277206,-0.20001415795043442,-1.7173222973436708,0.0,0.0,0.0,0.06400014102059962,16.032370118490086,1.6796884048004301,False,False,0,1,0.05,0.9,NONE,RAPID_VOLTAGE_COLLAPSE
1180.0,-0.2960766272489642,0.27368226553043956,9.694841820819503,-4.398672239184943,5.402633481714818,-9.810332313281414,49.804238662795534,37.774960163217955,-122.41940046972007,3.8852312583236857,-0.03322355495442316,0.11740114331053132,3,16.49332758590144,0,0,9.703222211326494,12.03243059828461,3.885373307065778,4.483340920810885,-2.725170594854731,2.2012889476988207,0.0,0.0,0.0,0.0483073530132496,16.032370118490086,0.6306093060317153,False,False,0,0,0.05,0.05,NONE,NONE
1200.0,0.44102974757151725,-0.03675257908600872,10.555229289092457,15.013743693801274,6.385206682576815,4.58663784976073,49.863911785267135,37.77496105139843,-122.41940034945857,3.958845177053024,0.21984463507073768,0.045264284606365564,3,16.454852488100666,0,0,10.564502985736137,16.947584218620623,3.9649447410330163,43.064038720482145,-2.9836561235800474,-1.923754890038687,0.0,0.0,0.0,0.25213948670045017,16.947584218620623,-0.0902814360651405,False,False,0,1,0.05,0.9,NONE,RAPID_VOLTAGE_COLLAPSE
1220.0,-0.1919658166827237,0.19496649964411567,10.101117642217659,2.7940867095822193,2.391148825196968,20.013629878750105,49.879408566149344,37.77496209327441,-122.41940036715134,3.846291920679668,0.1913626950182042,-0.05954665895759348,3,16.452789109469258,0,0,10.10482263242057,20.348707432377708,3.8510493660988456,22.984017665778378,-0.7748390441104647,-0.10316893157042983,0.0,0.0,0.0,0.27441733184982864,20.348707432377708,-0.8692182541275884,False,False,0,0,0.05,0.05,NONE,NONE
1240.0,0.06528997122659044,-0.26723255299883925,9.186232505661735,12.606366254436294,4.368850806049453,-30.405375098871733,49.951242839087655,37.7749632186521,-122.41940038048489,4.004106453741305,0.2892488355602711,0.13534706422158727,3,16.466294335891522,0,0,9.190350573607153,33.20382752650059,4.014540245378758,45.723602940670816,-3.591713646915551,0.6752613211132186,0.0,0.0,0.0,0.27173860475129075,33.20382752650059,-2.0550787134822457,False,False,0,0,0.05,0.05,NONE,NONE
1260.0,-0.37146676532457185,-0.10892748839684212,9.655471062752504,5.308684067490385,0.9461372760439226,15.451727005531804,50.00668207565172,37.774964368837516,-122.41940021298474,3.60281530388441,-0.1410916613504269,-0.018020223681066667,3,16.445955847916625,0,0,9.663227938899098,16.365609360088825,3.6055769262083897,23.643868264597234,-2.7719618282031178,-1.016924398744834,0.0,0.0,0.0,0.26672499702660263,33.20382752650059,-2.5694682475327824,False,False,0,0,0.05,0.05,NONE,NONE
1280.0,0.11597816072849691,0.215594371772791,9.307792846670493,-10.408180810197237,-3.6380944133500077,0.6363459413907899,50.055345542501215,37.77496538078233,-122.41940026128495,3.7470758273167055,0.2543929579824976,-0.10959473750818984,3,16.46204416569591,0,0,9.311011735758711,11.044043412416082,3.7557014035639544,17.61081015701933,-2.433173342474859,0.8044158889642716,0.0,0.0,0.0,0.32533835172865005,33.20382752650059,-2.511068797056808,False,False,0,0,0.05,0.05,NONE,NONE
1300.0,0.1710239288631377,-0.14318956579947148,10.088244834325304,6.550401950273152,6.393792445276651,-24.50014338330764,50.11336466333798,37.77496625071741,-122.41940018541717,4.175376676945683,0.06261432085132365,-0.007098390962504164,3,16.478632578816978,0,0,10.090710394877497,26.154261093482496,4.175846135522433,38.9849329559393,-2.9009560418383984,0.8294206560533368,0.0,0.0,0.0,0.18125736719875507,33.20382752650059,-2.494528780708478,False,False,0,0,0.05,0.05,NONE,NONE
1320.0,-0.5967222117273292,-0.07019339653832316,9.488678362010639,2.293085104883811,5.467709280551743,-4.292751050365313,50.083991987066014,37.77496736573622,-122.41940023120677,4.444534903714492,-0.14550547472724915,-0.21355714656094404,3,16.470279871570863,0,0,9.507682239566867,7.319958719506836,4.4469160497486335,29.151407765531534,1.46863381359843,-0.41763536230572385,0.0,0.0,0.0,0.12335211985626787,33.20382752650059,-2.0458342091666992,False,False,0,0,0.05,0.05,NONE,NONE
1340.0,-0.001871534766946396,-0.036654900593574624,9.783386531550944,-12.026709421292798,-1.690819578100844,3.5670074422391065,50.08127432466143,37.77496818734711,-122.41940024743829,3.837499925887304,-0.5555357820873386,0.08093301366180107,3,16.441837062848254,0,0,9.783455376814079,12.657967942876583,3.8775025063002158,13.788656862360593,0.13588312022925209,-1.422140436130448,0.0,0.0,0.0,0.0862818592321483,26.154261093482496,-1.3003148557377386,False,False,0,0,0.05,0.05,NONE,NONE
1360.0,-0.13673026839448124,0.09565672240760956,9.463517859989595,-1.327115914376783,-0.04626999197342678,-3.015754919654312,50.04607528526887,37.77496921412947,-122.41940025090295,4.316215149764841,0.5817835840621352,0.1427097001271785,3,16.47873061091777,0,0,9.46498894141874,3.2951715126482464,4.355248024825189,15.923321769766918,1.7599519696279486,1.844677403475714,0.0,0.0,0.0,0.09493352423361259,26.154261093482496,-0.39393209617152536,False,False,0,0,0.05,0.05,NONE,NONE
1380.0,0.11872290458268447,-0.29685650059384483,9.172503532682088,8.236447017312523,0.48856671802016405,6.216464574287738,50.02277831066771,37.77497016340744,-122.41940014182964,4.4403190724115245,0.3177553175057906,0.14780056021559074,3,16.485035253212708,0,0,9.178073870212788,10.330643189575747,4.4516740566470885,14.345753560297592,1.1648487300579546,0.315232114746955,0.0,0.0,0.0,0.11977516773281213,26.154261093482496,0.3256723183350374,False,False,0,0,0.05,0.05,NONE,NONE
1400.0,-0.38286319217494963,-0.5241497932992427,10.230845586041166,6.331947522304183,-11.176757163235155,-4.524158925446631,50.02192772189614,37.774971216236835,-122.41940015711954,4.446225342171761,0.1716726707910177,-0.11699450365396402,3,16.44521685519869,0,0,10.251415445447329,13.619158347483916,4.449538324283421,53.667078761727005,0.042529438578498,-1.9909199007008382,0.0,0.0,0.0,0.16396988029528048,13.619158347483916,0.9143694144184167,False,False,0,1,0.05,0.9,NONE,RAPID_VOLTAGE_COLLAPSE
1420.0,0.4806491787031169,0.12215522826483081,9.329703511776033,-2.136101497396623,-10.156056517099778,-13.002712517423664,49.9670682769647,37.77497220936865,-122.41940019716321,3.7920686601295253,0.020212239534019724,0.15326247484365155,3,16.44130966579898,0,0,9.342874993834952,16.63667473975707,3.7921225267340075,45.42702258061881,2.7429722465718953,-0.19535946998558984,0.0,0.0,0.0,0.1800685679458937,16.63667473975707,1.1692371010131097,False,False,0,0,0.05,0.05,NONE,NONE
1440.0,-0.036422938431912535,0.459694747028747,10.217548767587553,-7.972640905763129,-2.549124192424149,-9.507573781060346,50.02905528840136,37.774973209615496,-122.41940018091171,4.7192929752997355,0.05668660752035955,-0.22008251544276924,3,16.45830277405569,0,0,10.227949389243172,12.667083182917672,4.719633413538132,44.25371977041097,-3.099350571832815,0.8496554128354816,0.0,0.0,0.0,0.2594310305906552,16.63667473975707,0.5221903626006963,False,False,0,0,0.05,0.05,NONE,NONE
1460.0,-0.07578665500050102,-0.07778193371550793,9.878976807320965,-3.885148925318102,1.5763053661369397,20.84246361475087,50.06035218312889,37.77497412580896,-122.41940018881361,4.115158053131994,0.0014343642565243433,0.11712753501693426,3,16.485029074586233,0,0,9.87957369555358,21.259995538838346,4.115158303110334,17.418784684479593,-1.5648447363766138,1.336315026527224,0.0,0.0,0.0,0.24652963293238833,21.259995538838346,-0.1427689786002162,False,False,0,0,0.05,0.05,NONE,NONE
1480.0,-0.2273938264099549,0.019644409126727522,9.560053540879274,-1.167227849408062,-4.647800903571881,21.395287859437353,50.03692222232382,37.77497507980755,-122.41940031020056,4.185277861413606,-0.1425103910506705,0.15938888262080878,3,16.486131045313616,0,0,9.56277771150086,21.9253920530481,4.187703426556884,15.839799202635962,1.1714980402537378,0.05509853636915807,0.0,0.0,0.0,0.16112113454977076,21.9253920530481,-0.14143911656105956,False,False,0,0,0.05,0.05,NONE,NONE
1500.0,0.2519261523983147,0.0019760918385081892,10.132541315451741,-5.578253092720202,1.1105853619042918,-3.3013460471190386,50.09218099191554,37.77497610805832,-122.41940037498732,3.8126628708694077,-0.18292874401477088,0.14000228931282596,3,16.42391057915606,0,0,10.135672853863115,6.576411873913243,3.817048741147141,28.644757118112718,-2.7629384795861966,-3.1110233078777583,0.0,0.0,0.0,0.14073885481413756,21.9253920530481,-0.7025327001939985,False,False,0,1,0.05,0.9,NONE,RAPID_VOLTAGE_COLLAPSE
1520.0,0.3991340273975568,-0.3372393599697915,9.791964781711087,-6.470601393071027,5.562793001175034,0.6854142980579665,50.08960266633479,37.77497704995993,-122.41940037523096,3.4461413906621305,-0.14377006251085847,0.07906730675159611,3,16.458423985317822,0,0,9.805896830173651,8.560557290382265,3.449139068711075,16.48880118447318,0.12891627903748315,1.7256703080880342,0.0,0.0,0.0,0.07089525185604874,21.9253920530481,-1.225343893700881,False,False,0,0,0.05,0.05,NONE,NONE
1540.0,-0.32256824511781973,-0.5155621371761796,9.946056425732957,7.278057273427933,-7.579612041787916,15.025820710566574,50.05771186540553,37.7749780982354,-122.41940043917052,3.3775444765945877,-0.13088404148985774,-0.014391359525468498,3,16.482520551067054,0,0,9.964632106300359,18.33564627727654,3.3800794848185634,7.936763806335367,1.5945400464630666,1.2048282874616234,0.0,0.0,0.0,0.04453082218850833,21.9253920530481,-0.2865657700417046,False,False,0,0,0.05,0.05,NONE,NONE
1560.0,-0.1270895444947898,-0.2154303601065763,10.55562126129091,1.9920653389579053,3.9792016818059253,5.177999094247177,50.05561157561461,37.774979138645556,-122.41940058984436,4.072552315422274,-0.16806426646604888,-0.16521129999971507,3,16.437151835206247,0,0,10.558584289770682,6.827447909665014,4.076018640722108,29.69760917351616,0.10501448954585157,-2.2684357930403465,0.0,0.0,0.0,0.14009045938355108,21.9253920530481,0.047406075142788495,False,False,0,1,0.05,0.9,NONE,RAPID_VOLTAGE_COLLAPSE
1580.0,0.2330589797073041,0.082998768211857,9.45850334824288,-4.625799731763697,3.5720099895969226,6.7812172707352785,49.97314917954214,37.77498024048369,-122.4194006979107,4.333900659574964,0.003332518297180827,-0.11888111216430329,3,16.471424352392777,0,0,9.461738258495036,8.952216831438106,4.3339019408314385,54.842301563782314,4.123119803623609,1.7136258593264841,0.0,0.0,0.0,0.16449910707493914,18.33564627727654,0.6377304278167628,False,False,0,0,0.05,0.05,NONE,NONE
1600.0,0.1238097778146271,0.2943193248972371,10.141082020160095,-4.597181920877263,-0.6690088950903643,3.6171099788348053,49.98019346466897,37.7749810520736,-122.41940072867942,4.5495250882778615,0.15682636831900554,0.1813564348737994,3,16.497456245089417,0,0,10.146107493305244,5.88771085519127,4.552227261316136,34.21846174051044,-0.35221425634155423,1.301594634831993,0.0,0.0,0.0,0.16530540127451487,18.33564627727654,1.1198752724656913,False,False,0,0,0.05,0.05,NONE,NONE
1620.0,-0.19933130000372043,-0.22405203103825785,9.73844436549578,2.2168050172230505,-4.192285987681203,-5.9898280720211226,49.93992885115493,37.774982027997865,-122.41940085192485,4.003128093152042,0.08094135262428806,0.31606985266542204,3,16.427543931037025,0,0,9.743060655647692,7.639864306338544,4.003946307425681,20.1523418828776,2.0132306757020046,-3.495615702619581,0.0,0.0,0.0,0.17179730290216544,18.33564627727654,1.4967381517985956,False,False,0,1,0.05,0.9,NONE,RAPID_VOLTAGE_COLLAPSE
1640.0,0.06223782949774581,-0.18325037368369293,9.765679352907009,-10.409828377588031,-1.3952089189231665,2.878692936807834,49.93585180054046,37.77498311952195,-122.41940082408838,4.379482145620579,-0.1242443431888129,-0.14094899669135633,3,16.45385186292258,0,0,9.767596811430643,10.890271245598392,4.381244174960333,1.2268077891475215,0.20385253072348064,1.315396594277729,0.0,0.0,0.0,0.18056602101645927,10.890271245598392,1.2186006486506784,False,False,0,0,0.05,0.05,NONE,NONE
1660.0,0.24900689153323252,0.1575009062075764,9.848191254261138,-5.119680828563628,14.543601335202018,-5.115476166780089,49.97225298080327,37.77498417348872,-122.41940085015605,4.028476942344381,-0.32010982509274516,-0.4804508012145576,3,16.4532461415724,0,0,9.852597725878837,16.24486281864353,4.041175172535984,4.250045722409723,-1.8200590131403516,-0.03028606750898888,0.0,0.0,0.0,0.06027573698539415,16.24486281864353,0.8335859481134378,False,False,0,0,0.05,0.05,NONE,NONE
1680.0,-0.22460341853849963,0.41877624748091863,9.085550987085512,-5.651435151314906,2.0870611131733234,11.463399297786284,49.98434054858124,37.77498513186434,-122.41940072066828,3.7213541040788494,-0.09789387060698634,-0.027419388103591347,3,16.477201704649552,0,0,9.097969937299412,12.950060494844225,3.72264147855349,37.73138942897125,-0.6043783888983967,1.1977781538575982,0.0,0.0,0.0,0.1472144121215035,16.24486281864353,-0.11191369039096344,False,False,0,0,0.05,0.05,NONE,NONE
1700.0,0.13383610064089457,-0.4779436783890112,9.693962650130628,4.888481592149702,5.267061295916301,-21.59563855337434,49.911338914048486,37.77498617954729,-122.41940072955923,4.041742064765799,0.06320269447924358,0.1804124516649276,3,16.45740333856711,0,0,9.706660297119416,22.759850427885375,4.0422362002593,30.43451799100021,3.6500817266375662,-0.9899183041220283,0.0,0.0,0.0,0.09253353825173397,22.759850427885375,0.6885455062048607,False,False,0,0,0.05,0.05,NONE,NONE
1720.0,0.2705227021497629,-0.3856562877927499,9.880214820010483,-9.387101602974575,5.303773351707287,1.3984922457937659,49.91418298250249,37.77498712855182,-122.41940059957058,4.615857867536424,0.1705569105337444,0.19156734283305027,3,16.44468384769999,0,0,9.891438631172276,10.872141869585471,4.619007849422722,9.238916702642985,-0.14220342270014896,-0.6359745433559993,0.0,0.0,0.0,0.10505921822358755,22.759850427885375,0.25745868652442994,False,False,0,0,0.05,0.05,NONE,NONE
1740.0,0.023141089432784673,0.1646873528199021,9.758355918101321,-2.1373379502577574,2.491892571255273,17.644896571745463,49.9486060458215,37.77498812288855,-122.41940062625007,4.297223483531548,-0.04524896105516911,-0.04058218515974771,3,16.46816779695022,0,0,9.75977293068553,17.9477050657705,4.297461708484624,6.583285024337293,-1.7211531659505397,1.1741974625113727,0.0,0.0,0.0,0.10466327282745684,22.759850427885375,-0.12754245281037413,False,False,0,0,0.05,0.05,NONE,NONE
1760.0,-0.1588578512309183,0.19984164310208186,9.53907409640654,2.3958900090190673,-0.6152537577662104,25.427421993844895,49.91547405403709,37.774989192472695,-122.41940048081325,4.190231407004438,-0.01774272837768063,-0.06483230187443666,3,16.445512800804664,0,0,9.5424895659335,25.547458100069953,4.190268970920205,10.86416823760148,1.65659958922042,-1.1327498072777331,0.0,0.0,0.0,0.0942953402780677,25.547458100069953,0.5677892676617802,False,False,0,0,0.05,0.05,NONE,NONE
1780.0,0.14799765247853286,-0.13100673276865563,9.872525272284474,-12.397824762907346,6.4633112820970045,-9.044896937379802,49.91933645309566,37.774990072675486,-122.41940038537305,3.5045746016913997,0.2516876716563259,0.1467618833330477,3,16.465676312520863,0,0,9.874503598716519,16.652045285455582,3.5136006920087284,16.600701639150905,-0.19311995292845552,1.0081755858099228,0.0,0.0,0.0,0.020104199716918555,25.547458100069953,0.6500409548557684,False,False,0,0,0.05,0.05,NONE,NONE
1800.0,-0.11460038729747131,-0.31893988493156084,10.064263336820263,-14.755790674518277,3.0107381076814086,14.88208780681349,49.94573827245724,37.774991092766854,-122.41940039358869,4.010066293076765,0.1390168104196784,-0.032869550615521125,3,16.4417786278456,0,0,10.069967845620631,21.172492528584165,4.012475214683535,9.773212345205629,-1.3200909680790573,-1.194884233763105,0.0,0.0,0.0,0.03772648899560872,25.547458100069953,-0.3439935840875563,False,False,0,0,0.05,0.05,NONE,NONE
1820.0,0.5995787797547172,-0.00995943649151295,9.525233626263994,-3.320204900017578,5.377397214191012,6.7929522846537305,49.9574541619203,37.77499200426895,-122.41940051542036,4.858472933786951,-0.029327027417567104,0.07603827469451169,3,16.444046589518763,0,0,9.544090817800178,9.278165881189683,4.858561445827101,26.29385139102265,-0.5857944731531006,0.11339808365811166,0.0,0.0,0.0,0.05077547946845274,25.547458100069953,-0.43271179417814665,False,False,0,0,0.05,0.05,NONE,NONE
1840.0,-0.25099084942683,0.0195424923786867,9.900567983438954,-3.4507089015099304,-11.142554866995502,3.8942183738364844,49.84413980481266,37.774993012153665,-122.41940067230716,3.9838153619292553,0.053758654928046726,-0.23336292005663029,3,16.44935524727436,0,0,9.903768207616778,12.297514286639014,3.984178062150736,17.983869490829996,5.665717855382013,0.26543288777993723,0.0,0.0,0.0,0.055038178110122876,25.547458100069953,1.044662410088364,False,False,0,0,0.05,0.05,NONE,NONE
1860.0,0.08130386428594599,0.3764975193099103,9.410455478027368,8.654505716575978,-5.918783507810586,-8.84806831824654,49.830414206052865,37.774994009796174,-122.41940059972238,4.0794800862947955,-0.34061151210289475,0.08746007182510308,3,16.416387209318398,0,0,9.418334937998841,13.719357870357308,4.093674874321703,24.271663480896866,0.6862799379899087,-1.6484018977982018,0.0,0.0,0.0,0.07329736908125148,21.172492528584165,0.8505984798422617,False,False,0,1,0.05,0.9,NONE,RAPID_VOLTAGE_COLLAPSE
1880.0,0.3498591297821743,0.6534929277852093,10.11111958558442,2.6316427606864634,-7.379452881952574,-18.483864260634668,49.77160401757695,37.774995137721746,-122.41940065174381,4.07698155517452,-0.006094313117672625,-0.11473536111425481,3,16.46597748978905,0,0,10.13825397646686,20.075734269570297,4.07698611009231,35.995951923400945,2.940509423795845,2.4795140235326585,0.0,0.0,0.0,0.10202910460919806,21.172492528584165,1.4773243551871218,False,False,0,0,0.05,0.05,NONE,NONE
1900.0,-0.11185722769406342,0.10004676696847874,9.779563667842549,9.21475028528223,-7.2464625619328125,15.883202773518398,49.725555338285936,37.77499618228867,-122.41940074167232,4.178195803638521,0.03445225037297202,-0.02260009925448492,3,16.41713533355451,0,0,9.78071505199667,19.740794635128175,4.178337843102004,17.87694622350946,2.3024339645505876,-2.442107811727112,0.0,0.0,0.0,0.08187056095050156,20.075734269570297,2.201829341713051,False,False,0,1,0.05,0.9,NONE,RAPID_VOLTAGE_COLLAPSE
1920.0,-0.30682479008017255,0.011898098915475138,9.40209694630367,8.072827483358381,2.002628295122231,3.1202528588037155,49.651233533715356,37.774997335081466,-122.41940089920179,4.064525913220515,0.1384238561533055,0.031505020588092354,3,16.44801091534647,0,0,9.407109545671208,8.88352641507658,4.066882351776777,18.680275316273143,3.716090228529012,1.5437790895980186,0.0,0.0,0.0,0.10020785272964888,20.075734269570297,3.0622062820494733,False,False,0,0,0.05,0.05,NONE,NONE
1940.0,-0.27582353868342907,-0.41743657762684133,9.804770213481278,1.5637028273220288,-3.2892996299617945,-10.102064146862489,49.70106676577089,37.77499839903831,-122.41940096304151,3.916145393411547,-0.46646381656393543,0.0075733058916519725,3,16.4813069555768,0,0,9.817527736655618,10.738545460869748,3.9438284996310213,20.520909549220523,-2.4916616027766736,1.6648020115166418,0.0,0.0,0.0,0.09418672952998891,20.075734269570297,1.430730390417736,False,False,0,0,0.05,0.05,NONE,NONE
1960.0,-0.21196693039574052,-0.11354252725985102,9.63243695452236,-14.09979418645479,6.169661684378978,-7.8764616094727575,49.772394635736006,37.77499962913063,-122.419400894457,4.622017215406445,0.0041424551362100465,0.10510711809078445,3,16.46951080247348,0,0,9.635437902240144,17.288943544519327,4.622019071731326,9.104491720773744,-3.5663934982558487,-0.5898076551661191,0.0,0.0,0.0,0.07169354613253534,20.075734269570297,0.5801957031685845,False,False,0,0,0.05,0.05,NONE,NONE
1980.0,-0.13639690534908844,-0.06629928287143644,10.174790841939021,-1.2527332393932908,-4.015320487764614,-17.17196819109077,49.77702972043887,37.77500059199211,-122.41940080163874,4.065031574046202,0.1081021050383022,-0.22030344973657412,3,16.41912667214018,0,0,10.175921009319218,17.679610593686057,4.066468709225027,27.024155353953727,-0.23175423514310012,-2.5192065166649513,0.0,0.0,0.0,0.0791800939159942,19.740794635128175,-0.05425702861920456,False,False,0,1,0.05,0.9,NONE,RAPID_VOLTAGE_COLLAPSE
2000.0,0.021804514675335077,-0.10442423692308983,9.833710401887984,6.66312543910186,-3.971587998554284,4.969886911661525,49.75904243609697,37.77500174709373,-122.4194006911784,3.8529644757462553,0.21477429104570162,0.08615731344472773,3,16.450995639422032,0,0,9.834288999532053,9.212520163460773,3.8589458725741155,17.081600489358273,0.8993642170949556,1.593448364092609,0.0,0.0,0.0,0.08021949230031215,17.679610593686057,-0.33487097811033095,False,False,0,0,0.05,0.05,NONE,NONE
2020.0,0.025966607209225553,0.18999338296192547,10.055548868890835,2.6355045754633286,-2.4993137407447215,-1.3242153783709227,49.732233203146066,37.77500290498235,-122.4194006302526,4.184939387743241,-0.4244352011477254,0.013887292929873429,3,16.477659990657195,0,0,10.05737713347327,3.8660056790281048,4.206407364849259,11.154406697060892,1.3404616475451547,1.3332175617581044,0.0,0.0,0.0,0.0454820488838869,17.679610593686057,-0.8099966943071024,False,False,0,0,0.05,0.05,NONE,NONE
2040.0,0.17248541961224123,-0.43476267881962816,10.10840821429331,7.464733076363619,5.822276763452622,15.66972943032859,49.736516353452515,37.775004042401235,-122.41940059215395,4.527837840952158,0.018938502399335096,-0.18637097648074952,3,16.412812182265352,0,0,10.119223608245134,18.307418360634667,4.527877447638289,3.0923237385931834,-0.21415751532245508,-3.242390419592134,0.0,0.0,0.0,0.05062528906051158,18.307418360634667,-0.3544958768162587,False,False,0,1,0.05,0.9,NONE,RAPID_VOLTAGE_COLLAPSE
2060.0,0.11764825197156258,0.23504276944156854,9.948284906245588,2.0214309372476285,-0.44463216685138096,-3.0986497258053163,49.688071511659786,37.77500492476373,-122.41940075314574,3.917095421149044,0.043870367932658395,-0.0468426414491411,3,16.48763897647299,0,0,9.951756568088495,3.7263267330031784,3.9173410813419545,8.373352007831958,2.422242089636484,3.741339710381908,0.0,0.0,0.0,0.01860049744178478,18.307418360634667,0.8432312407622078,False,False,0,0,0.05,0.05,NONE,NONE
2080.0,-0.402626092501672,0.06721266525304706,10.819096714569675,-0.7715197636004434,-9.04240482057082,18.14301713374783,49.68405153092546,37.77500608263891,-122.4194006609417,3.806839951890104,0.0044151136359593095,-0.1108179167056062,3,16.464717314877905,0,0,10.826794494768334,20.28618737959836,3.8068425121792298,43.751896333991965,0.20099903671635388,-1.1460830797542343,0.0,0.0,0.0,0.15155993713714513,20.28618737959836,0.9297818951340986,False,False,0,0,0.05,0.05,NONE,NONE
2100.0,0.28204175990567537,-0.11439049829414623,9.81895192572486,4.162387168561931,-1.9399571283884742,0.29664179930616963,49.6945711003976,37.77500711062094,-122.41940069331275,3.9483889010993627,0.21737324423421614,-0.26972894670260195,3,16.446404383366342,0,0,9.823667831320776,4.601836259374063,3.95436796993319,50.156333172377906,-0.5259784736072248,-0.915646575578144,0.0,0.0,0.0,0.15330099954252108,20.28618737959836,0.6447133569936625,False,False,0,0,0.05,0.05,NONE,NONE
2120.0,-0.17623662074427934,-0.08157470481781616,10.202407204256923,-4.980078936063616,0.5781201380392206,8.318168659579063,49.73432945060415,37.77500813184166,-122.4194005750665,4.103699320643628,-0.25716364997596536,0.056015773020411365,3,16.433766007277423,0,0,10.204255315329535,9.712226261400335,4.111749172447163,19.029374200437932,-1.9879175103273639,-0.6319188044459523,0.0,0.0,0.0,0.15039020291450397,20.28618737959836,-0.020962474580841217,False,False,0,0,0.05,0.05,NONE,NONE
2140.0,-0.4080416647690331,0.024342903687407456,9.794853799877309,1.562061088089767,-4.121517231265155,4.588753227110732,49.68234107722394,37.77500921493903,-122.41940055116677,4.032036397137527,-0.07399021576643336,0.28042218448553297,3,16.454705334170225,0,0,9.803379597777411,6.362672025954106,4.032715221766959,20.04378587760618,2.599418669010589,1.0469663446400546,0.0,0.0,0.0,0.1807512705428932,20.28618737959836,0.5417527622857676,False,False,0,0,0.05,0.05,NONE,NONE
2160.0,0.10032085104429465,0.1282039559274992,9.486342103284317,8.157981472186206,0.574351438480909,1.0564083693663773,49.71538066998165,37.775010200735004,-122.4194005742165,3.9222225505018593,-0.08360237915874852,-0.07691493698857862,3,16.463753693212855,0,0,9.487738773175325,8.246122720302301,3.92311344386908,15.782041230104316,-1.6519796378855034,0.4524179521315119,0.0,0.0,0.0,0.26330498067697783,20.28618737959836,-0.2730915832186298,False,False,0,0,0.05,0.05,NONE,NONE
2180.0,-0.03624442826510555,0.09572552282744601,9.92457032224212,5.397257643864854,7.192753285976206,5.060522427859187,49.76739101197767,37.77501127628411,-122.4194007817371,3.6730685734333095,-0.024368991045967833,-0.2462261276515213,3,16.441446024885852,0,0,9.925098141350034,10.318671288012084,3.6731494106376896,21.86796840873546,-2.6005170998011806,-1.115383416350113,0.0,0.0,0.0,0.06630743300631825,10.318671288012084,-0.8333948105221367,False,False,0,0,0.05,0.05,NONE,NONE
2200.0,-0.1549561473100134,0.04178782351619582,9.476062672671265,-8.17516020133461,5.1753850970857185,6.564022791124075,49.74169030344257,37.77501234728303,-122.4194009387672,4.097582677842545,0.013424596274516712,0.3127378886708631,3,16.456111971890824,0,0,9.47742166447062,11.692059289236374,4.097604668771795,22.383823843970685,1.2850354267552433,0.7332973502485629,0.0,0.0,0.0,0.0946405087906271,11.692059289236374,-0.4711920304496431,False,False,0,0,0.05,0.05,NONE,NONE
2220.0,-0.12614429303908353,-0.2513955899420933,9.794182000806606,-4.185914434454084,7.527117579352554,10.696762462996618,49.69744668224893,37.77501318670188,-122.41940072988204,3.7320328653710964,0.28047615832430184,0.023249867052636694,3,16.4538387046189,0,0,9.798219899054764,13.73317537555473,3.7425574389177187,16.0399117292072,2.212181059681839,-0.11366336359621698,0.0,0.0,0.0,0.04139658718011927,13.73317537555473,0.3688276835521975,False,False,0,0,0.05,0.05,NONE,NONE
2240.0,0.2296576175084203,-0.07670218599932974,9.839587557190042,0.3470544512933992,6.249472457234104,-14.715944858650136,49.6832202641854,37.775014195865154,-122.41940087174375,4.164143084900536,-0.21986514471724183,-0.07227818491120262,3,16.42332008146367,0,0,9.842566186834906,15.991728670432149,4.169943442468552,2.2173143890070968,0.7113209031764711,-1.5259311577613843,0.0,0.0,0.0,0.0437611572636937,15.991728670432149,-0.00879186961462608,False,False,0,1,0.05,0.9,NONE,RAPID_VOLTAGE_COLLAPSE
2260.0,-0.005164694864954052,-0.013925973418118588,9.973772472587312,2.9521586810068214,-3.0097122767776594,-19.286794799661873,49.7434979553682,37.77501512072491,-122.41940089027322,4.157254997913602,-0.0579795330324972,-0.13749138419021367,3,16.44116138817409,0,0,9.973783531927547,19.742189911737107,4.157659286657372,6.560867254632008,-3.0138845591398677,0.8920653355209751,0.0,0.0,0.0,0.03791592070808089,19.742189911737107,-0.28117285386549895,False,False,0,0,0.05,0.05,NONE,NONE
2280.0,-0.043208204103257736,-0.1048573539441449,9.128830896177814,-1.6863290142198695,-1.9479995358748146,9.09225523553081,49.72214611495739,37.77501615807937,-122.41940093924309,4.227983219239446,0.2098425484772619,0.06080358438104515,3,16.47816533797783,0,0,9.129535341110664,9.45026523458499,4.233187451238344,42.21240954084413,1.067592020540431,1.850197490187,0.0,0.0,0.0,0.11609781168681765,19.742189911737107,0.4524489702028234,False,False,0,0,0.05,0.05,NONE,NONE
2300.0,0.054384029256882155,-0.18833103462657447,10.233024956171368,12.958892197983278,-2.0433409974011942,-5.504040423671651,49.71900263431838,37.77501713847309,-122.41940093935438,4.153262089405357,-0.38610702995320073,-0.08959570850296102,3,16.438742321581493,0,0,10.234902342224267,14.22682643515496,4.171170653650008,55.26835005568014,0.15717403195054658,-1.9711508198168914,0.0,0.0,0.0,0.16764763310025108,19.742189911737107,0.22687669124188403,False,False,0,1,0.05,0.9,NONE,RAPID_VOLTAGE_COLLAPSE
2320.0,-0.3266848989846082,-0.10283826842825947,9.553724699552236,-0.294054096547885,-4.590305955155829,11.669767731102262,49.72696158856823,37.77501826818069,-122.41940092032337,4.324105613327117,-0.0046412859957422085,-0.11033628823784097,3,16.45901294396422,0,0,9.559861629098632,12.543558325750764,4.324108104192445,33.752035656281706,-0.39794771249255234,1.0135311191362462,0.0,0.0,0.0,0.17872233862446543,19.742189911737107,-0.2951490631929943,False,False,0,0,0.05,0.05,NONE,NONE
2340.0,0.020316489189147635,-0.09053898426941222,9.261163648986534,-3.329939983218832,4.022227136162124,6.747179314757364,49.744930709657275,37.77501942234912,-122.41940100416497,3.7412068342943345,0.1448159586872969,0.218359507667573,3,16.419569123588282,0,0,9.2616284853537,8.531778251467161,3.7440085788979114,14.911657187246607,-0.898456054452268,-1.9721910187968206,0.0,0.0,0.0,0.2187892342851824,19.742189911737107,-0.6171044547187421,False,False,0,1,0.05,0.9,NONE,RAPID_VOLTAGE_COLLAPSE
2360.0,-0.061831321504711476,0.25773084298932164,9.7132292623176,-3.696014455016575,-3.895925059831576,-2.79560074071642,49.726796547855365,37.77502046609754,-122.41940101820956,3.684545466486922,-0.02886828785609659,-0.15945136286555972,3,16.456068934028114,0,0,9.71684470402249,6.054266134306398,3.6846585557759717,22.76081093343949,0.9067080900955204,1.8249905219915874,0.0,0.0,0.0,0.18807659943639715,14.22682643515496,0.16701407512833555,False,False,0,0,0.05,0.05,NONE,NONE
2380.0,0.20282688546116412,-0.10610549682641371,9.721957271521694,2.1909511423911456,-1.5920820203893662,9.462064559011264,49.7681568573363,37.77502140547811,-122.41940116627696,3.7259090869913045,0.25514527582336544,-0.12839140548180303,3,16.427552823147018,0,0,9.724651680714132,9.842035246171859,3.734634873223801,0.39034883458208824,-2.0680154740468026,-1.4258055440548034,0.0,0.0,0.0,0.12470485539667354,14.22682643515496,-0.4601074237891112,False,False,0,0,0.05,0.05,NONE,NONE
2400.0,0.027420047573702307,-0.3842268745769132,10.1762571342656,1.8097552143107347,-4.4464314465822135,-14.151292738758633,49.7663927875389,37.7750224876977,-122.41940116949038,4.228895258713965,-0.13116486621108542,0.10199880147318696,3,16.42858376131693,0,0,10.183545129906754,14.943394953052765,4.230928896980145,22.94467245963112,0.08820348987015336,0.05154690849558108,0.0,0.0,0.0,0.11148597914672777,14.943394953052765,-0.4739015322051898,False,False,0,0,0.05,0.05,NONE,NONE
2420.0,0.47363135876582513,-0.196050029248962,10.34638457098611,2.993891447931282,4.783563445632534,-7.199122755848046,49.68745966960447,37.775023528263425,-122.41940106222262,4.021862566874652,-0.1234431110944771,-0.12129245604969033,3,16.4488925748299,0,0,10.359075053725324,9.14730745597616,4.023756541902634,8.776496190928462,3.946655896721296,1.0154406756486267,0.0,0.0,0.0,0.1875074290845512,14.943394953052765,0.39501918963757987,False,False,0,0,0.05,0.05,NONE,NONE
2440.0,0.14755027861005537,-0.08084253228534784,9.677156682624139,-0.21798768314636963,1.731352684675973,-0.4355083612888541,49.67240793644214,37.77502422888832,-122.41940103841276,4.228373793037807,0.23963742553740214,0.05879402398026755,3,16.446087750290996,0,0,9.678619119471602,1.7985461577314952,4.2351589142991,34.02279671268609,0.7525866581165275,-0.1402412269452924,0.0,0.0,0.0,0.0997883886529689,14.943394953052765,0.725227732151339,False,False,0,0,0.05,0.05,NONE,NONE
2460.0,0.045846874675869946,0.6691396904294293,10.037519569088545,-1.3326010156466896,-4.882411740800108,-3.9406430737573226,49.64377930443595,37.77502505715665,-122.41940113126216,3.676392489052027,-0.23050173086580297,-0.09132395918011202,3,16.46040034567589,0,0,10.059903029406447,6.414237110394103,3.6836113776415518,19.064195496742276,1.4314316003094518,0.7156297692446856,0.0,0.0,0.0,0.08632693375932386,14.943394953052765,0.8301724341941252,False,False,0,0,0.05,0.05,NONE,NONE
2480.0,-0.15718341801268296,0.09804927812698817,10.230872722297883,0.8511961040258249,0.33614984081071064,-1.4067848426734053,49.63549702695058,37.775026144258035,-122.41940113139096,3.408889324556463,0.17444885000756333,0.13566074725193478,3,16.400879299817053,0,0,10.232549875162999,1.6782655083631572,3.413350088746242,8.632342287827566,0.4141138742685513,-2.9760522929418443,0.0,0.0,0.0,0.06770031495377454,14.943394953052765,1.326598303857196,False,False,0,1,0.05,0.9,NONE,RAPID_VOLTAGE_COLLAPSE
2500.0,-0.2778220378036078,0.08609564075470577,9.845624836506198,1.167640882671598,3.55401013773201,-12.019817870994896,49.66300008628527,37.77502711826478,-122.41940102084338,3.8033141546423925,-0.03157164275573823,0.21203037927103757,3,16.451284873357405,0,0,9.849920099436037,12.588502490045283,3.8034451918661154,19.131488786348072,-1.3751529667345608,2.520278677017629,0.0,0.0,0.0,0.07648188020989741,12.588502490045283,1.0339270125362532,False,False,0,0,0.05,0.05,NONE,NONE
2520.0,-0.23800443080377795,-0.8587119753054692,10.187150116347413,-2.203252312444266,0.4171504589227396,1.1313257461578945,49.71041923944726,37.77502834880323,-122.4194010631328,3.720359303564889,-0.07733804805773131,0.06552259599143835,3,16.432454614540582,0,0,10.226048105627724,2.5116196371246535,3.7211630602943493,18.806400309584337,-2.3709576580994707,-0.9415129408411715,0.0,0.0,0.0,0.05853316342997758,12.588502490045283,-0.22959569842790017,False,False,0,0,0.05,0.05,NONE,NONE
2540.0,0.44444251178128913,-0.32374206439529335,8.945624859060302,7.429824554045929,-3.880488946711413,-14.057090339713719,49.70005532579587,37.77502938505535,-122.4194009384891,3.186024807905341,0.09418877858262424,-0.09695030665029138,3,16.45352083294779,0,0,8.962507583794563,16.36649859280616,3.187416760105141,63.17702609165803,0.5181956825694556,1.0533109203604951,0.0,0.0,0.0,0.2795371927524233,16.36649859280616,-0.27647389353731455,False,False,0,0,0.05,0.05,NONE,NONE
2560.0,0.13844553023844497,0.5393211771184746,9.671458005836488,-5.945244325650928,-7.192038944510198,-8.314250167206684,49.70073266733897,37.77503029056599,-122.4194007851551,3.115272127162991,-0.13660937017085575,-0.08458477543889004,3,16.48306810977156,0,0,9.687473068638187,12.497924232204813,3.1182659518227602,36.248274242181196,-0.0338670771547811,1.4773638411883283,0.0,0.0,0.0,0.27120494639633536,16.36649859280616,-0.5695336290301611,False,False,0,0,0.05,0.05,NONE,NONE
2580.0,-0.09019051561137933,0.15443835396797972,9.799688219668012,4.84856544346108,-8.985159792421152,-26.70289310772858,49.735413128658756,37.77503134879981,-122.41940069366665,3.8753744667106518,0.10187770909912647,0.059583288820945976,3,16.432355296049703,0,0,9.801320050737175,28.588217567341363,3.876713340555909,5.692349104949379,-1.7340230659893763,-2.535640686092755,0.0,0.0,0.0,0.21334291690735635,28.588217567341363,-0.9991610170817466,False,False,0,1,0.05,0.9,NONE,RAPID_VOLTAGE_COLLAPSE
2600.0,0.3204484053922326,0.2511578782679841,8.994592257412135,-3.0603033539938913,-7.669269802755842,-6.126185162468187,49.73648762880342,37.775032366535335,-122.41940066583949,4.2247184559311,0.37387717234789974,0.1256006564372059,3,16.46114495595633,0,0,9.003802382184587,10.281697358450804,4.241229794751485,39.87588342762942,-0.053725007233040856,1.4394829953312538,0.0,0.0,0.0,0.2954081996829158,28.588217567341363,-0.7348754251814427,False,False,0,0,0.05,0.05,NONE,NONE
2620.0,-0.5128219076210158,-0.06035679689691544,9.399751604383987,1.6794294348372896,-2.652630075101902,6.940319037528356,49.731929690293754,37.77503345297878,-122.41940055102718,4.368108577304498,0.24172275567476556,-0.26596611834098877,3,16.433160718933646,0,0,9.413923702473216,7.617411495029762,4.374791701753597,20.50606601443148,0.22789692548315088,-1.399211851134119,0.0,0.0,0.0,0.1472084469862592,28.588217567341363,-0.21510450846491835,False,False,0,0,0.05,0.05,NONE,NONE
2640.0,-0.22120060387084184,-0.10674532684984211,10.368307273274999,8.813401661559396,3.24045809448764,13.810587183329243,49.737350123329314,37.77503459935221,-122.41940055239215,4.164105867559818,0.24446423566623712,0.07043272566033588,3,16.426867354918283,0,0,10.37121593570418,16.700566932246534,4.171275636872489,47.8646116615482,-0.27102165177801396,-0.3146682007681534,0.0,0.0,0.0,0.2544009866177323,28.588217567341363,-0.37294797533441226,False,False,0,0,0.05,0.05,NONE,NONE
2660.0,-0.05088123070741141,0.3139397123508192,10.587932428318041,6.736227196918938,-2.155913753390853,0.5408491375287368,49.71298051548961,37.77503548331345,-122.41940056350583,4.041314762573317,-0.09609721564202721,0.043161339239587045,3,16.4083253281325,0,0,10.592707876140926,7.093464509683247,4.042457134596133,11.074597021837285,1.2184803919851106,-0.9271013392892158,0.0,0.0,0.0,0.43274127961012954,28.588217567341363,-0.12247848150643392,False,False,0,0,0.05,0.05,NONE,NONE
2680.0,-0.6513524872852113,-0.03601150982658945,9.7893990213489,1.5239422279932069,-3.1924487026054464,9.826684591546096,49.66163642354935,37.77503644474623,-122.41940048991823,4.231105764197115,-0.2714948963912993,0.06694497790317025,3,16.433034725904175,0,0,9.811110543191297,10.444034598504429,4.239807244036994,39.07986664748142,2.5672045970129176,1.235469888583829,0.0,0.0,0.0,0.43258777574324053,16.700566932246534,0.7377670510940249,False,False,0,0,0.05,0.05,NONE,NONE
2700.0,0.4064451110982586,-0.022548428528596516,9.115160168873663,-13.464221997350307,0.5303377771984121,-5.8704965830321925,49.6268239817704,37.775037307220394,-122.41940054268508,4.108288528487528,-0.040972712032758894,0.035019634816686705,3,16.399360746673285,0,0,9.124245227096088,14.697933946077194,4.108492837578464,34.34326580476048,1.7406220889476742,-1.683698961544522,0.0,0.0,0.0,0.3852192568462751,16.700566932246534,1.0966364703301679,False,False,0,1,0.05,0.9,NONE,RAPID_VOLTAGE_COLLAPSE
2720.0,0.3682210753557651,-0.05321273789690704,10.336123896588623,-1.478997597753895,-3.468338037533749,3.9359779002974298,49.65526296228303,37.77503825344766,-122.41940040539447,4.064315515728465,-0.3822356472145687,0.03744857734925936,3,16.46163920909151,0,0,10.342817583301033,5.450571040578685,4.082249955771043,60.92861781024723,-1.4219490256316192,3.1139231209111884,0.0,0.0,0.0,0.34938280860896126,16.700566932246534,0.7666672801072139,False,False,0,0,0.05,0.05,NONE,NONE
2740.0,-0.1262855139561401,0.2540439323538247,9.78964852429742,-6.723659573571849,1.2815545817631775,0.5739409565987043,49.62320401154139,37.77503913437445,-122.41940034689898,3.5222555764570433,-0.22812681290161496,-0.12627805428236205,3,16.43886085955851,0,0,9.793758450149749,6.868725386051186,3.529635418658333,27.452956657564176,1.6029475370821444,-1.1389174766499366,0.0,0.0,0.0,0.32287360975990487,14.697933946077194,1.1414611178792455,False,False,0,0,0.05,0.05,NONE,NONE
2760.0,0.011133783822968615,-0.48859704095015283,10.093344216018169,7.109683731347549,-4.904606545410246,-18.651063223182938,49.62370022928024,37.77504009281872,-122.41940048285596,5.078595401205077,0.07429723039550268,0.10589621072888603,3,16.437480589345046,0,0,10.10516939455222,20.553951626882753,5.0791388372031925,15.570547220123565,-0.024810886942461252,-0.06901351067316597,0.0,0.0,0.0,0.20957830886047732,20.553951626882753,0.8928028620937312,False,False,0,0,0.05,0.05,NONE,NONE
2780.0,-0.04756808983366634,0.6749311639669388,10.260880113532524,-11.704630012713782,-3.699883944868394,16.010222127667447,49.61535876526363,37.77504111646874,-122.41940040678065,4.284342194818035,0.05035634786900688,0.12878641853563033,3,16.4234043396303,0,0,10.283163691372,20.174605758657776,4.284638118215928,8.89971484098897,0.4170732008304867,-0.7038124857373873,0.0,0.0,0.0,0.24840740942770934,20.553951626882753,0.462776582857245,False,False,0,0,0.05,0.05,NONE,NONE
2800.0,0.3258098430215121,-0.13038184419532978,9.87470242531579,6.734456348365714,7.422214790969839,-6.62436324135957,49.59894983393165,37.77504220775988,-122.41940056608253,3.801319981451828,0.0022481140446536105,-0.14439165860451764,3,16.471091545316003,0,0,9.880936163524336,12.013507525481915,3.8013206462230578,20.111376392383207,0.8204465665990313,2.3843602842852363,0.0,0.0,0.0,0.058133967098213786,20.553951626882753,0.2787414783875164,False,False,0,0,0.05,0.05,NONE,NONE
2820.0,0.22175169790309027,0.5508687138123494,9.916643857020958,14.835347374012771,-0.18572147182724064,8.473778712625133,49.62920910890795,37.775043034981806,-122.41940059372436,3.7203510576302463,0.33852390064551174,-0.06130237347198503,3,16.44216611696602,0,0,9.934407659361058,17.085869888397962,3.735720870637787,2.673574791836142,-1.5129637488151104,-1.446271417499112,0.0,0.0,0.0,0.0380637728441461,20.553951626882753,0.26053853375081815,False,False,0,0,0.05,0.05,NONE,NONE
2840.0,0.0132007939670675,0.3223800251465595,9.678564601186547,5.46440444521042,-3.935278255795353,-1.6679258565379789,49.58765536094835,37.77504405914131,-122.41940074800208,3.972277467354338,0.571577765041243,-0.08744040209158872,3,16.439806035458446,0,0,9.683941133697383,6.937442436105619,4.013189432252175,12.523326283183778,2.077687397980199,-0.11800407537876367,0.0,0.0,0.0,0.05177202401579694,20.553951626882753,0.3554865059304291,False,False,0,0,0.05,0.05,NONE,NONE
2860.0,0.6149658147066384,-0.1501513352720433,9.883937281210434,-7.408193467058121,11.251646152635688,0.6832413589683034,49.62705380428901,37.77504518804107,-122.41940062456624,4.69271410379036,-0.05084500533800639,0.24152323909844034,3,16.447434881296065,0,0,9.90418823304784,13.488798699072092,4.692989545532867,11.012354967522864,-1.969922167033289,0.38144229188095125,0.0,0.0,0.0,0.04702351030091001,20.174605758657776,-0.03353575008773646,False,False,0,0,0.05,0.05,NONE,NONE
2880.0,-0.23604666326198961,-0.17946398909979477,10.546926702153268,-0.37479655965010344,3.067341932368386,6.985478541129101,49.59780081024349,37.77504618841688,-122.41940068429216,4.066860554598347,-0.022178575581263266,-0.28813411298631375,3,16.431969257486394,0,0,10.55109417127979,7.63845334081227,4.066921029447558,32.345296911597465,1.4626497022760532,-0.7732811904835657,0.0,0.0,0.0,0.10771090366035138,17.085869888397962,0.17557955020137683,False,False,0,0,0.05,0.05,NONE,NONE
2900.0,-0.09675748699621942,0.11479282754042258,10.14024880713734,-12.423676459100232,-2.959769944748815,-8.496499406168217,49.59235659377288,37.77504711155827,-122.41940073806278,3.815142148661842,0.06588812478462718,0.15605066637734968,3,16.43117437394894,0,0,10.141360129449836,15.339441875285312,3.815711055554879,20.486702091497655,0.27221082353072745,-0.039744176872602566,0.0,0.0,0.0,0.10695466862479315,17.085869888397962,0.06593240158771607,False,False,0,0,0.05,0.05,NONE,NONE
2920.0,0.12988318395750467,-0.11133610194916899,9.260245366110789,6.661114252787988,-5.413672669953761,3.1887019253332216,49.588684719596344,37.775048013312556,-122.41940066010443,3.9928437650373536,0.3204874198925969,0.20979098097855117,3,16.43187267988495,0,0,9.261825392958373,9.156752417463483,4.005685149672535,43.976736824573145,0.18359370882663484,0.03491529680044181,0.0,0.0,0.0,0.23394610758948747,15.339441875285312,0.4052438931160651,False,False,0,0,0.05,0.05,NONE,NONE
2940.0,0.09331520836499232,0.4068440698366375,10.194988045201736,3.7028096865903866,0.05201579173041515,6.958536207340263,49.598372811319535,37.77504907983823,-122.41940069927855,4.01708993585634,0.0839964423853492,0.22844348069084586,3,16.415519854853855,0,0,10.203529343667306,7.88255868145378,4.01796801319917,47.08519753544662,-0.48440458615957027,-0.8176412515547682,0.0,0.0,0.0,0.2296061446025828,15.339441875285312,-0.10717450371188875,False,False,0,0,0.05,0.05,NONE,NONE
2960.0,0.17292951699371556,0.3977858658657144,9.524827865218422,-4.963709442499483,5.357731663074016,-4.364988536000682,49.574500270024295,37.775050126312564,-122.4194005725328,4.422650003582071,0.19225967158758417,0.08441282661218637,3,16.42569264173537,0,0,9.534698950411151,8.508632376738447,4.426826948899568,33.44151966280773,1.1936270647620262,0.5086393440757675,0.0,0.0,0.0,0.2769020538155804,15.339441875285312,0.5255353426471743,False,False,0,0,0.05,0.05,NONE,NONE
2980.0,-0.012980820855411756,-0.29168182318978675,9.376738350621485,-0.7296725536320088,-1.0562775069801926,-20.39823516200304,49.60678127393859,37.77505114967356,-122.41940051014716,4.05045603285424,-0.1270254977921019,-0.04211703458513613,3,16.45270670039222,0,0,9.381282901805335,20.438594421624334,4.052447353288459,7.670802430290813,-1.6140501957146114,1.3507029328424736,0.0,0.0,0.0,0.19228488688265785,20.438594421624334,-0.08980463695095864,False,False,0,0,0.05,0.05,NONE,NONE
3000.0,0.2735046044796728,-0.43906955967012473,10.228996419712853,1.6107809885933686,-0.20601547677851165,-21.04061032018917,49.60802423730034,37.775052079870356,-122.4194006920585,4.034284071082732,-0.38650970640086735,-0.036205111257578824,3,16.429239734476134,0,0,10.242067886974723,21.10318318206846,4.0527568048593725,43.039249258469425,-0.062148168087716726,-1.1733482958042885,0.0,0.0,0.0,0.2163089182564535,21.10318318206846,-0.15667643527464747,False,False,0,0,0.05,0.05,NONE,NONE
3020.0,0.24013190203649615,-0.01542053238766131,9.47210200073478,-5.81474938933262,-2.91714893615568,-6.268514805991529,49.58336216914902,37.775053155255996,-122.41940071653941,4.042919698005333,-0.00412398205137484,-0.17747586385164266,3,16.419427148911257,0,0,9.475157910848695,9.034121221756621,4.042921801339657,38.3454988063014,1.2331034075661051,-0.49062927824383706,0.0,0.0,0.0,0.17604000604194683,21.10318318206846,0.05322550447324659,False,False,0,0,0.05,0.05,NONE,NONE
3040.0,0.24020594298062423,-0.2736149806588019,9.8476916053618,-3.1453012990457587,-3.580955694651224,4.218542747105835,49.64729190347432,37.77505408394033,-122.41940068161601,4.1606554823913,0.07416194132698428,0.0849516186383275,3,16.43194974646989,0,0,9.854420023877479,6.364924733097259,4.161316382671974,18.96310565143917,-3.196486716264957,0.6261298779316249,0.0,0.0,0.0,0.12427787842593377,21.10318318206846,-0.4891909215478307,False,False,0,0,0.05,0.05,NONE,NONE
3060.0,0.06609278208140558,0.1833045864422489,10.05003950444506,10.743470749173804,-8.44158595902493,-5.658761205984966,49.64788650229398,37.77505506757966,-122.41940062325706,4.5916491182428345,0.023107389438031818,-0.04339284051791594,3,16.42043686976425,0,0,10.051928315908363,14.78864820151999,4.591707261630127,9.875414601544197,-0.02972994098300319,-0.5756438352820581,0.0,0.0,0.0,0.13567377627197572,21.10318318206846,-0.7338623226968366,False,False,0,0,0.05,0.05,NONE,NONE
3080.0,0.2770653426782907,-0.34202484963525814,10.017256319339877,1.676139722737777,1.632269635348862,-4.366572548808273,49.587666276487425,37.7750561038417,-122.41940062094031,4.042106462407977,0.43068102673530384,0.11112670198175716,3,16.406039166218456,0,0,10.026922278009147,4.953857522842917,4.064985953263566,1.2503018949607814,3.0110112903276587,-0.7198851772896475,0.0,0.0,0.0,0.08356010446102516,21.10318318206846,0.19114997451161742,False,False,0,0,0.05,0.05,NONE,NONE
3100.0,-0.14911193807740106,0.2899917966212912,9.464475912936587,-4.073006291873287,-4.266136397045399,-23.025103670742222,49.56688979104057,37.77505720521051,-122.41940059665004,4.404752327132972,0.1394798130579767,0.10448873915628028,3,16.404562302323953,0,0,9.470091547537525,23.768565355533386,4.4069601406904075,27.841536523581123,1.0388242723426089,-0.07384319472514278,0.0,0.0,0.0,0.08233340778106539,23.768565355533386,0.41134446259768254,False,False,0,0,0.05,0.05,NONE,NONE
3120.0,0.4011079929182831,0.0539314754169393,10.077393355933104,-8.393563161881161,-4.853528225768031,-31.873777222555912,49.52967951338015,37.77505803390165,-122.41940053051728,4.316448776398514,0.40671714496818734,0.02594385236662281,3,16.413665045362688,0,0,10.08551699598133,33.31585678357889,4.335567883828288,30.771272422190243,1.8605138830210421,0.4551371519367464,0.0,0.0,0.0,0.06512052768477525,33.31585678357889,0.5368265576886699,False,False,0,0,0.05,0.05,NONE,NONE
3140.0,0.11057415276002105,-0.6929719048040021,9.512671454258392,2.3868458624740203,11.867159496911906,7.398261378913703,49.50894370671531,37.77505914694175,-122.4194005484962,4.0555335397468335,0.009970809369447315,0.05486624445384121,3,16.392089287332457,0,0,9.53851953401411,14.186640868333908,4.055545796690128,27.349873098360966,1.0367903332422657,-1.0787879015115465,0.0,0.0,0.0,0.09192721213762575,33.31585678357889,1.3834819675901144,False,False,0,0,0.05,0.05,NONE,NONE
3160.0,0.16324228207368938,-0.28040839361346764,9.4290361719177,-9.468502334308493,-12.980297443320534,24.712766128799927,49.49354153724766,37.77506025416442,-122.41940057332846,3.7666989401876014,0.13535593343453306,0.010969492287629076,3,16.46030636310784,0,0,9.43461711153123,29.476456162650216,3.7691301562464425,5.19512112414402,0.7701084733824359,3.4108537887691526,0.0,0.0,0.0,0.10106091789295188,33.31585678357889,1.5434496504632023,False,False,0,0,0.05,0.05,NONE,NONE
3180.0,-0.3616653048483455,-0.08651000133534255,9.660449094192609,-2.6146162045261394,4.959833009094064,-7.748901819028156,49.47079019066415,37.77506123344665,-122.41940059259085,4.0555956919567215,0.053845522751315114,-0.009241781517791555,3,16.415367118253425,0,0,9.66760376073352,9.564603534700622,4.055953125584452,11.649332460114525,1.1375673291755817,-2.2469622427207625,0.0,0.0,0.0,0.0701484983380022,33.31585678357889,1.1687608582327869,False,False,0,1,0.05,0.9,NONE,RAPID_VOLTAGE_COLLAPSE
3200.0,-0.35375786688972827,0.37750243403301853,9.580638728861267,4.34278191058273,2.5530190682779557,-2.547608859910212,49.45207083586194,37.77506227895458,-122.41940061275236,4.65108085411048,-0.18650253920626159,0.14890243504215975,3,16.426021537057263,0,0,9.594596977937305,5.645172449887464,4.654818611783218,3.650339139810743,0.9359677401103994,0.532720940191922,0.0,0.0,0.0,0.06271701383429339,33.31585678357889,1.148189551786345,False,False,0,0,0.05,0.05,NONE,NONE
3220.0,-0.3165435168119421,0.47869465206129846,10.218674500534634,1.0671594866630425,-1.5593462895571442,7.458150972987524,49.44575353075754,37.775063138822354,-122.41940068950719,4.384220420504948,-0.0371640182111536,0.1511077316902153,3,16.474150144370736,0,0,10.23477683761715,7.693790103492901,4.384377933050729,32.008992983992265,0.3158652552198049,2.4064303656736286,0.0,0.0,0.0,0.09861774146751628,29.476456162650216,0.8392598262260975,False,False,0,0,0.05,0.05,NONE,NONE
3240.0,0.35670303611894033,0.37386228002934513,9.399048336005325,10.971475986037351,1.9692521631563231,19.89914519031638,49.38813064959048,37.77506406336742,-122.41940066058551,4.260029202383063,0.25631976980856097,-0.15386523187901952,3,16.431636101619734,0,0,9.413241720202965,22.808490057423388,4.267733430001361,41.07675587070929,2.881144058353158,-2.1257021375500784,0.0,0.0,0.0,0.11149720497485799,29.476456162650216,1.208130571248276,False,False,0,1,0.05,0.9,NONE,RAPID_VOLTAGE_COLLAPSE
3260.0,-0.09172956775239866,0.1333725840638458,9.877645177269654,4.021162446523319,3.999165585717299,6.897278496107132,49.3416725538516,37.77506495814633,-122.41940069084573,4.2881594708924995,0.08231037723099924,-0.08691617163134807,3,16.432555803416022,0,0,9.878971444832624,8.929474982112714,4.288949363889127,23.28648623148295,2.32290478694388,0.0459850898144154,0.0,0.0,0.0,0.0989201028886306,22.808490057423388,1.5186898339605648,False,False,0,0,0.05,0.05,NONE,NONE
3280.0,-0.2205668040656354,-0.03317044170206895,9.82818139007144,-11.879215828954909,-1.878074937643352,-13.372563083514994,49.31711665273571,37.775065920126785,-122.4194006585923,3.857231906298375,-0.06030355254917158,-0.111625348516621,3,16.411291113278303,0,0,9.830712050986188,17.985226648693782,3.8577032671547262,2.412969692321809,1.227795055794445,-1.0632345068859905,0.0,0.0,0.0,0.0968819774223559,22.808490057423388,1.5367353792843375,False,False,0,0,0.05,0.05,NONE,NONE
3300.0,0.045301045513031685,0.18386133964461307,10.01707416850184,2.048570182392942,-5.989073732140237,-7.19839727384685,49.33909400521719,37.7750669796965,-122.41940056155094,3.8417459962557694,-0.05958941449112967,-0.14715411457734104,3,16.426851497611697,0,0,10.018863811541072,9.585539487860212,3.8422081148822,9.407588027744218,-1.0988676240739181,0.778019216669712,0.0,0.0,0.0,0.09133339563329665,22.808490057423388,1.129768306447474,False,False,0,0,0.05,0.05,NONE,NONE
3320.0,-0.6276508754681753,0.020917211690242122,10.221040007263314,1.9334885246054467,0.12271191172752312,0.9158895962743996,49.32707262998765,37.775068012685296,-122.41940035442724,3.677734574067414,0.22949960688588256,0.14957500997495404,3,16.433904170252838,0,0,10.240314545037085,2.142962864966272,3.684888284175193,11.07253667480066,0.6010687614772081,0.35263363205704223,0.0,0.0,0.0,0.0923348311752643,22.808490057423388,1.1868090076989546,False,False,0,0,0.05,0.05,NONE,NONE
3340.0,0.6748759479651337,0.19043860599724316,9.447717978046855,-2.179019689647116,-5.430228152527676,-4.13178333064058,49.3788632196159,37.775069014078525,-122.41940032404452,3.4102411148994323,-0.23673270764699028,-0.4020991280845233,3,16.412376414805724,0,0,9.473705684709957,7.162900117112713,3.418448015784414,38.33044301635642,-2.589529481412711,-1.0763877723556803,0.0,0.0,0.0,0.07906319023966071,17.985226648693782,0.09267429974578079,False,False,0,0,0.05,0.05,NONE,NONE
3360.0,0.40984973101848093,-0.32445132465731125,10.261260117991666,9.522965068398042,-7.297852685571382,-2.2305615800826746,49.37073719003446,37.77507015902753,-122.41940034618992,3.6817538528569274,-0.10486915947681846,0.17640664422062005,3,16.399657161938674,0,0,10.274565911666253,12.203316044287785,3.6832470693175337,40.04301134781478,0.4063014790720132,-0.6359626433525278,0.0,0.0,0.0,0.10847479309639108,17.985226648693782,-0.2906463618285926,False,False,0,0,0.05,0.05,NONE,NONE
3380.0,-0.015147038130173356,-0.4316068712986613,10.09370659257161,-5.044387579727498,0.6805821644440803,-33.241263849841445,49.41378905174272,37.775071206020804,-122.4194003511521,3.7015730950371633,-0.41070384086731027,-0.2849643870924457,3,16.377771984974338,0,0,10.102941487558954,33.628717794049834,3.7242879887041718,8.581221205364908,-2.152593085412846,-1.0942588482167892,0.0,0.0,0.0,0.10465969148277501,33.628717794049834,-0.9667239900700508,False,False,0,0,0.05,0.05,NONE,NONE
3400.0,-0.056530720092084596,-0.1478504479432033,9.657253201899614,0.8207009412082239,3.569406923400143,2.33065528494582,49.402392908269604,37.77507211680137,-122.41940025222404,3.8191165224453054,-0.1188609068481569,0.2559894341498374,3,16.434050938336984,0,0,9.658550351003585,4.341217556972101,3.820965706099898,22.21955682776846,0.5698071736556898,2.8139476681323217,0.0,0.0,0.0,0.1312039590385361,33.628717794049834,-0.6329890305241292,False,False,0,0,0.05,0.05,NONE,NONE
3420.0,0.14322755788766567,0.36221827511362864,10.041193102348995,3.902678884408042,-1.9766899006963154,-1.9366574292471705,49.4667547315908,37.77507313888367,-122.41940033638105,3.9071481708524094,0.08847994812464373,-0.22213392390674114,3,16.397036110585518,0,0,10.048744953019048,4.784229032621397,3.908149885843104,19.509730100773126,-3.2180911660596223,-1.8507413875733292,0.0,0.0,0.0,0.11073751514011447,33.628717794049834,-1.3968210160314953,False,False,0,1,0.05,0.9,NONE,RAPID_VOLTAGE_COLLAPSE
3440.0,0.10771226665440416,0.2073064234931088,9.14412187525965,1.1526095738635533,6.128977812457812,5.632669459575798,49.42146153708483,37.77507412555222,-122.41940022857834,4.077104947770597,-0.2779439540954957,-0.0019321497968239289,3,16.40198156738662,0,0,9.14710570373008,8.403561334113054,4.086567948383304,45.081962464448374,2.2646597252983014,0.24727284005514605,0.0,0.0,0.0,0.20359576612752234,33.628717794049834,-0.4259831746892928,False,False,0,0,0.05,0.05,NONE,NONE
3460.0,0.08354632827155074,-0.40434834253867774,9.381272299889424,-13.31370970166339,-6.314317494739351,1.905507739354751,49.411433317095444,37.775075238117886,-122.41940024004654,3.8959436935492904,-0.1743736300206629,-0.17656293945841753,3,16.41126225168556,0,0,9.390353962218573,14.857874383278322,3.8998440258750184,12.162412924424615,0.5014109994693428,0.4640342149469845,0.0,0.0,0.0,0.17065911395154426,33.628717794049834,-0.4069612706098269,False,False,0,0,0.05,0.05,NONE,NONE
3480.0,-0.022772365275031996,-0.30102068368658735,9.579074365591092,10.927499290010259,1.8579001665786934,3.902868760114848,49.386735609018125,37.77507610966915,-122.4194002181714,4.003870756147419,-0.13678436411671754,-0.02708612250957075,3,16.41282675622554,0,0,9.583830013838504,11.751358147926062,4.006206559102928,9.673802580996593,1.2348854038659596,0.07822522699907353,0.0,0.0,0.0,0.11206243202783585,14.857874383278322,0.27053442724593424,False,False,0,0,0.05,0.05,NONE,NONE
3500.0,0.15882993537892146,-0.3547344696619949,9.936893033770268,-0.1964519101823562,8.149083869566274,-11.179397536400568,49.43248847542701,37.775077204863905,-122.41940032983214,4.636549787369962,-0.37501437687528555,0.04598811710723987,3,16.415773210186426,0,0,9.944491271901793,13.835645649665889,4.651691059563564,18.03306290316442,-2.2876433204441327,0.1473226980442277,0.0,0.0,0.0,0.14168730147761915,14.857874383278322,-0.30095567157403025,False,False,0,0,0.05,0.05,NONE,NONE
3520.0,0.059195143009943,-0.5415483004861819,9.372347750189281,18.918852095874932,8.767494716427949,4.950084486083457,49.38875615171924,37.77507810573036,-122.41940039497113,3.9778647271237384,-0.18301225436185842,-0.021426857683250863,3,16.412419311868547,0,0,9.388167072288047,21.43117506455368,3.982072484591638,27.8162099806873,2.186616185388246,-0.1676949158939678,0.0,0.0,0.0,0.08830976169488454,21.43117506455368,0.7799857987155434,False,False,0,0,0.05,0.05,NONE,NONE
3540.0,-0.09555811623355871,0.033082158049297955,9.591731855543943,8.113918206173633,3.3463924232655655,-18.329722459059077,49.38637104974559,37.77507927166107,-122.41940031651214,4.077616480812788,0.21058964523443377,-0.1178178563289827,3,16.422351511485818,0,0,9.592264892683884,20.322714787476105,4.083050840153233,10.204891019791873,0.11925509868255801,0.49660998086356045,0.0,0.0,0.0,0.05144607906952789,21.43117506455368,0.35090487339239473,False,False,0,0,0.05,0.05,NONE,NONE
3560.0,-0.14382984783663058,0.2894211130205204,9.889052252742479,-1.0393649692513396,-4.191006993520998,-11.270686837506009,49.34282300251196,37.77508010858771,-122.41940038865745,4.36249129364439,0.18548397562672772,-0.2551617582966262,3,16.431421559584592,0,0,9.894332017031864,12.06951535680617,4.366432707867762,15.103356217399,2.177402361681402,0.4535024049387104,0.0,0.0,0.0,0.054501128913189464,21.43117506455368,0.6861031458348066,False,False,0,0,0.05,0.05,NONE,NONE
3580.0,0.2692051884289105,0.15781508059336768,9.33566371921382,-8.411530807118735,10.553767853510031,10.823558173867049,49.378724747451955,37.775081037570956,-122.41940029334403,4.1813342864502445,0.28851550967604006,0.1507343895551798,3,16.418096733126067,0,0,9.340877587859984,17.29986352454763,4.19127637055444,27.67272145859403,-1.7950872469995716,-0.6662413229262754,0.0,0.0,0.0,0.07806362822140925,21.43117506455368,0.08010861566170036,False,False,0,0,0.05,0.05,NONE,NONE
3600.0,0.01828547513104429,-0.020689473132721223,9.74597674647519,-3.1520214047842856,-5.589142552553454,-8.44439472995158,49.39277121540263,37.775081955050155,-122.41940020383238,3.9169255927010234,0.09834263090973205,0.19488318899078497,3,16.405447734491464,0,0,9.746015860634252,10.605732212545066,3.9181599471959423,20.256913638713403,-0.7023233975338883,-0.6324499317301502,0.0,0.0,0.0,0.054933845725265926,21.43117506455368,0.39717260024374923,False,False,0,0,0.05,0.05,NONE,NONE
3620.0,-0.01703955886676756,0.22968046824119706,10.025639560396453,0.9179759669728627,-6.115673790987665,9.733047867561751,49.424873087052354,37.775082966928174,-122.41940013562323,4.0987133884010625,0.20668395128379174,0.144950608738532,3,16.413190834060483,0,0,10.02828460201665,11.531537910702179,4.103921258500996,14.113437069119872,-1.6050935824861057,0.38715497845096536,0.0,0.0,0.0,0.07153932598466353,20.322714787476105,-0.3611693533311211,False,False,0,0,0.05,0.05,NONE,NONE
3640.0,-0.19684706851807712,0.18957135761444324,10.111315661667822,-10.406458313282034,-3.177051180257799,13.729188782443297,49.445233222355576,37.775084092794785,-122.41940013736001,3.894880395678603,-0.15618290856489425,-0.05917830680217592,3,16.37784390108791,0,0,10.115008179823727,17.517952319036066,3.8980105691967153,4.336178890353892,-1.0180067651610614,-1.7673466486286316,0.0,0.0,0.0,0.09271231503948199,17.517952319036066,-0.588621726099845,False,False,0,1,0.05,0.9,NONE,RAPID_VOLTAGE_COLLAPSE
3660.0,-0.11766257142484578,0.0083082339738754,9.609758779192255,5.80187492039118,-1.567346413687082,2.20308037052366,49.459524925461935,37.775085004247636,-122.41940010164072,4.240481367491971,0.08186914481796709,-0.27086898510800006,3,16.46931485056757,0,0,9.61048267787465,6.40092887722935,4.241271599994488,25.226275097453854,-0.7145851553179483,4.5735474739830195,0.0,0.0,0.0,0.09897280638234775,17.517952319036066,-1.167019229499715,False,False,0,0,0.05,0.05,NONE,NONE
3680.0,-0.04573412006890533,0.08124014392048408,10.465800974360812,5.029212752799905,-5.248981434408374,8.276416398048381,49.48853053533438,37.77508610618568,-122.41939996093826,3.894665913879509,-0.32851587037167473,0.04192454683697545,3,16.41132208454023,0,0,10.466216202890825,11.015618702804357,3.9084965469884922,42.78667625080876,-1.4502804936221025,-2.8996383013669913,0.0,0.0,0.0,0.11184625939133477,17.517952319036066,-1.0980578788242212,False,False,0,1,0.05,0.9,NONE,RAPID_VOLTAGE_COLLAPSE
3700.0,-0.060081017569278874,0.3505952373328986,10.110843538419497,-1.0562648474538912,-10.602298501568384,-10.543276033515093,49.6452239433275,37.77508692652971,-122.41939991342116,4.371182496459908,0.005162185273184249,0.044484354478632464,3,16.40884616605435,0,0,10.11709858642842,14.989499606832103,4.371185544622222,17.455880823120218,-7.834670399656218,-0.12379592429407893,0.0,0.0,0.0,0.0935235759889924,17.517952319036066,-2.5245272792486873,False,False,0,0,0.05,0.05,NONE,NONE
3720.0,0.08467347910016502,-0.13459924923934477,10.492305306600786,-1.1424876825005172,-6.666114515167781,5.555516723646668,49.685655738308334,37.77508784371804,-122.41939969972192,3.921035613241246,0.26821047110314117,0.13508403075851833,3,16.388990492763188,0,0,10.493510242186916,8.752492610720319,3.9301981040547465,18.820582787924778,-2.0215897490416523,-0.9927836645580612,0.0,0.0,0.0,0.12770761359322524,17.517952319036066,-2.6078265125597966,False,False,0,0,0.05,0.05,NONE,NONE
3740.0,0.04124971597611588,-0.1437427000772473,10.430805585588832,-6.177376785493803,-8.859293268976142,-22.552787000629923,49.71444436836992,37.775088755067834,-122.41939962044202,4.183915595566225,-0.11755997617133858,-0.011571850037239742,3,16.41834493798535,0,0,10.431877523592998,25.005504647406454,4.1855668742500916,3.081635929695903,-1.4394315030791915,1.467722261108051,0.0,0.0,0.0,0.14058720210101,25.005504647406454,-2.6921114601434226,False,False,0,0,0.05,0.05,NONE,NONE
3760.0,-0.024027867696617394,0.35051031694253104,9.907211678804822,9.862756835785245,6.556763603070487,-18.384813118181334,49.76527188844167,37.775089659431984,-122.41939965942613,3.8119426752605605,-0.19042393372146016,-0.03870912044697012,3,16.427259750847814,0,0,9.913439265429322,21.86930439540387,3.8166959839639567,25.92191290818384,-2.541376003587459,0.4457406431232158,0.0,0.0,0.0,0.0660338676349666,25.005504647406454,-3.0574696297973247,False,False,0,0,0.05,0.05,NONE,NONE
3780.0,-0.06449472252734206,0.0705212596812369,9.787454288245836,-5.824472382529788,4.89361653565566,17.740346134209176,49.76904319277341,37.77509068410991,-122.41939973054698,3.87223429635495,-0.11023150221058292,-0.08241901822511825,3,16.416878852065725,0,0,9.787920834467489,19.302638221094163,3.8738029673625785,6.275921548091645,-0.1885652165871221,-0.5190449391044183,0.0,0.0,0.0,0.09639786445805623,25.005504647406454,-2.8051265743903286,False,False,0,0,0.05,0.05,NONE,NONE
3800.0,-0.04573516007913042,0.2656645072311684,9.576881538732048,1.0817166786450372,8.789312728573043,19.000935444150638,49.783544636356055,37.77509173467556,-122.41939978686823,4.04380629447056,-0.05060125983601907,0.1430429930376547,3,16.39552997257471,0,0,9.580674785325746,20.96324585951076,4.044122875815807,10.362302457087136,-0.725072179132269,-1.0674439745507414,0.0,0.0,0.0,0.16244242304560097,25.005504647406454,-1.3832069302855388,False,False,0,0,0.05,0.05,NONE,NONE
3820.0,0.2600557158071367,-0.0016954902445026738,10.273053862750796,-0.7948034807565112,4.430039356669567,4.843935027309594,49.74408516968685,37.77509280925175,-122.41939986420013,3.920013147164168,0.4233231396511652,-0.09156463144451453,3,16.415854603894175,0,0,10.276345046610208,6.612160601759516,3.9428042754496504,34.783513064223115,1.9729733334603594,1.0162315659732357,0.0,0.0,0.0,0.1227924414049589,25.005504647406454,-0.5842943137851364,False,False,0,0,0.05,0.05,NONE,NONE
3840.0,-0.022078828664591734,-0.06459490058338616,9.958414700563008,-2.056783245641323,-12.582983219543843,14.709659162457353,49.705761987146,37.77509368319059,-122.41939966138553,3.8874978975665595,0.16826399155480365,0.11682356693402661,3,16.408551607841364,0,0,9.95864866958595,19.466275881599397,3.8911377095186923,15.884818851212934,1.916159127042505,-0.36514980264055197,0.0,0.0,0.0,0.06493205295686735,21.86930439540387,0.08682381223920288,False,False,0,0,0.05,0.05,NONE,NONE
3860.0,0.46139085304352234,0.27861263152356747,9.488504332947112,-2.8792287943046384,-6.5839430335330995,5.297789711084626,49.69517972541525,37.77509477723043,-122.41939962600739,3.6668709054180666,-0.28509910342618827,0.23404479153817925,3,16.4067441678412,0,0,9.503800344813271,8.927756725047793,3.6779374295623803,22.74241623863391,0.5291130865373361,-0.09037200000818757,0.0,0.0,0.0,0.0964377967118698,20.96324585951076,0.7009216302641619,False,False,0,0,0.05,0.05,NONE,NONE
3880.0,0.2770622612201083,-0.11508981152860615,9.828850968233404,-10.91691392587191,-1.886302002322001,1.250275898922142,49.696354829076384,37.7750956627401,-122.41939978928532,3.980990017452368,0.008068929762116959,0.15245887946684208,3,16.406238374158633,0,0,9.83342872639309,11.14900599749976,3.9809981947600668,16.4814190789909,-0.05875518305664684,-0.02528968412836008,0.0,0.0,0.0,0.09608843387878056,20.96324585951076,0.7268836369702569,False,False,0,0,0.05,0.05,NONE,NONE
3900.0,-0.25394058639408557,0.14561901005487396,10.283911368853262,-7.631285476580604,0.33863402671080745,-20.216301641732162,49.78654102948021,37.77509684612083,-122.41939971252562,4.502834477919592,-0.0980807279437365,0.1338346638992326,3,16.427405339130267,0,0,10.288076776537824,21.611340613173883,4.50390254831689,22.73240250723676,-4.509310020191393,1.0583482485817086,0.0,0.0,0.0,0.10778039778120518,21.611340613173883,-0.02996393124156782,False,False,0,0,0.05,0.05,NONE,NONE
3920.0,-0.2588822877247912,0.33138352843970387,9.30178567068013,-2.2428713353801033,-6.061433912317391,10.318747056716315,49.77745037061799,37.775097861592904,-122.41939975783289,4.126470020856163,0.22694333157062727,-0.09380467568652795,3,16.421870012989636,0,0,9.3112862562102,12.175713273601373,4.132705906397048,48.83952601638119,0.454532943111019,-0.2767663070315507,0.0,0.0,0.0,0.14722156997532052,21.611340613173883,-0.3336520093114359,False,False,0,0,0.05,0.05,NONE,NONE
3940.0,0.5510277426293202,0.26658430507463743,10.01365083980197,-1.8681607970870733,-8.270583436338146,4.560982083275441,49.72570342201519,37.775098908891394,-122.41939974640258,4.159097603547135,-0.12840992567426004,-0.02778332122592933,3,16.349530240622443,0,0,10.032342792504949,9.627831152713652,4.161079425442777,36.0528268147374,2.587347430140241,-3.6169886183596844,0.0,0.0,0.0,0.15492548593574376,21.611340613173883,-0.19941434869188868,False,False,0,1,0.05,0.9,NONE,RAPID_VOLTAGE_COLLAPSE
3960.0,-0.2544660908100028,-0.2592971170523308,9.847413956026962,-0.6729886900091107,-7.5328869514670975,-20.42951683350596,49.75996047143965,37.775100087893826,-122.41939982771412,3.7245094209062444,0.1420842071938527,0.11854696241547871,3,16.438393431182472,0,0,9.854113334422248,21.784454495143247,3.7272185807050913,8.911472904135032,-1.7128524712230586,4.443159528001495,0.0,0.0,0.0,0.12867628163807848,21.784454495143247,-0.6478074602439676,False,False,0,0,0.05,0.05,NONE,NONE
3980.0,-0.5684407791496756,0.16267477738855743,9.230662305371451,0.23686607323991038,-1.6999394085125603,-6.59710919310415,49.70462551890969,37.77510116951233,-122.4193997248496,4.130918043719175,-0.07749406461650164,-0.19892066648339657,3,16.392990651805263,0,0,9.249579157907894,6.8167256975035615,4.13164485574153,30.22670882571772,2.766747626498045,-2.270138968860458,0.0,0.0,0.0,0.20573294567442005,21.784454495143247,-0.08270689833302924,False,False,0,1,0.05,0.9,NONE,RAPID_VOLTAGE_COLLAPSE
4000.0,0.2676327350144234,16.523452697298293,16.602927579778225,409.74677468213065,7.155250903821036,-7.081471847328968,49.67585315008442,37.77510219009714,-122.41939974228968,3.7656985692757226,0.07767133642820652,-0.1060743969116298,3,16.40343122041886,0,0,23.4254844248751,409.8704236968434,3.7664995089801576,708.7952633483603,1.438618441263273,0.5220284306798106,0.0,0.0,0.0,38.27767869455914,409.8704236968434,1.106878793957904,False,False,0,0,0.05,0.05,NONE,NONE
4020.0,0.5262897088614368,15.572809560833164,15.811084597405678,408.38731412400944,1.4258698769178864,12.96474277744819,49.69641510194872,37.775103094932,-122.41939974002916,3.6712946949132066,-0.17315041804390752,-0.2611253136884314,3,16.42306162814563,0,0,22.19864353112481,408.59554084401566,3.6753756004205385,61.34204468751463,-1.0280975932150938,0.9815203863384525,0.0,0.0,0.0,51.7557149287811,409.8704236968434,0.8103526866926813,False,False,0,0,0.05,0.05,NONE,NONE
4040.0,-0.06800887832105726,12.72416327593397,19.364833695580664,381.5407239918681,-5.925633387440625,6.102139117145827,49.69491547430269,37.77510417765581,-122.41939979478242,3.7019473436488193,0.13467821631014185,0.029200688353904058,3,16.417338333703157,0,0,23.171226560923646,381.6355241550323,3.704396355291511,48.62915148994187,0.0749813823016865,-0.2861647221235941,0.0,0.0,0.0,53.96215166967824,409.8704236968434,0.30787947712497044,False,False,0,0,0.05,0.05,NONE,NONE
4060.0,0.07998152774386737,14.523025855453149,18.9350726023321,287.1716052581335,-0.5421948115763212,-13.298134600842463,49.7689109384685,37.77510498559832,-122.4193997810922,3.9237077265253393,-0.02550822994558083,0.2530455542768809,3,16.416240909637295,0,0,23.863395640573213,287.479851860281,3.9237906408203793,34.60845398247834,-3.69977320829058,-0.054871203293060944,0.0,0.0,0.0,39.09842120630212,409.8704236968434,-0.08950467028853382,False,False,0,0,0.05,0.05,NONE,NONE
4080.0,-0.10656056365334775,14.041130705534783,15.755900303068533,297.1604348450685,-1.2718301500463425,1.1735570583808101,49.76267037319069,37.775106219013026,-122.41939971525784,4.001297292131082,-0.01651639180174939,-0.10780484026497761,3,16.39808153827293,0,0,21.104812271230298,297.165473811158,4.001331379830178,137.92916846714576,0.3120282638906957,-0.907968568218287,0.0,0.0,0.0,1.2209901767735887,409.8704236968434,-0.5804485428100037,False,False,0,0,0.05,0.05,NONE,NONE
4100.0,0.2491579558234514,14.833386447843761,15.478116099670398,378.4899872412132,-10.953316410088474,-12.023309586274376,49.82381818085642,37.77510727174932,-122.41939970898869,4.342205238791431,0.20900296353653586,0.15756714520587198,3,16.40216877556364,0,0,21.439764718692718,378.839287238851,4.347232289003522,16.74762237312102,-3.0573903832866733,0.20436186453558491,0.0,0.0,0.0,1.3416384784296171,408.59554084401566,-1.479650307719993,False,False,0,0,0.05,0.05,NONE,NONE
4120.0,0.2723365866314232,13.52492656636196,17.534832206301814,376.566767337827,-1.464687553204695,6.821057355572706,49.84714411279957,37.77510826103333,-122.41939972846488,4.0930207959589655,0.026815229072514424,0.14939591538910985,3,16.411357749441223,0,0,22.14651544476153,376.6313879595508,4.093108634358826,35.33753630344059,-1.1662965971574124,0.45944869387906095,0.0,0.0,0.0,1.3462720462323199,381.6355241550323,-1.5072901085084567,False,False,0,0,0.05,0.05,NONE,NONE
4140.0,-0.8326579726300515,17.945244855736828,19.230479956563727,405.0081940824463,-0.30490064892509494,13.827201715320168,49.80711680511665,37.775109176377605,-122.41939974303259,3.8456367655502555,0.09357378658565693,-0.06484685105497857,3,16.41091667687566,0,0,26.31608807538713,405.2442741675771,3.8467750371041727,208.47863153127992,2.00136538414597,-0.022053628278051463,0.0,0.0,0.0,4.623262148918802,405.2442741675771,-1.1220133081396,False,False,0,0,0.05,0.05,NONE,NONE
4160.0,0.1287955270308358,12.055563731371294,17.292797841815073,375.5262262515622,-7.330118144532229,20.30519755867203,49.80994230659382,37.775110133985024,-122.41939968711331,3.878748305184475,-0.037951778675540164,0.026548084214541096,3,16.415970127811832,0,0,21.080656118034423,376.1462192853319,3.878933971141565,261.7715978676353,-0.14127507385843785,0.2526725468085189,0.0,0.0,0.0,4.934672126597337,405.2442741675771,-0.4103136812531716,False,False,0,0,0.05,0.05,NONE,NONE
4180.0,-0.2472210446671347,14.979172096276644,19.656490523873742,300.2580259277988,10.69316741621083,2.179699058990824,49.824988794440465,37.775111217582044,-122.41939955775167,3.923149173955803,-0.4113454040510507,-0.06788562515050434,3,16.424042676648828,0,0,24.714658295229114,300.45628143115533,3.9446551791688997,181.70010885973457,-0.7523243923323264,0.4036274418497854,0.0,0.0,0.0,5.171447983204645,405.2442741675771,-0.623184212497776,False,False,0,0,0.05,0.05,NONE,NONE
4200.0,0.27969511886678294,17.192879482479842,14.73676536717111,446.3683256867533,-2.9134392845828243,0.39688975633565,49.87425805818492,37.775112199468936,-122.41939958734774,4.21736235231373,0.4298261171178268,-0.10767897484893964,3,16.37483644619672,0,0,22.646094315480717,446.37801001655436,4.239209325059307,103.42819898741986,-2.463463187222814,-2.460311522605352,0.0,0.0,0.0,4.4372516802851045,446.37801001655436,-0.5043987732850042,False,False,0,1,0.05,0.9,NONE,RAPID_VOLTAGE_COLLAPSE
4220.0,-0.3120988882586188,17.306368718891292,18.670649592858787,375.4030843615599,-1.1480713353211254,14.661983099995712,49.87321967471004,37.77511321008383,-122.4193996752427,4.2149811785278075,0.00976889889137518,-0.031043080382685564,3,16.393103879435113,0,0,25.459791047249176,375.69105334621423,4.2149924990122125,140.68483658842297,0.05191917374389732,0.9133716619196264,0.0,0.0,0.0,4.588044213797807,446.37801001655436,-0.2607556191047422,False,False,0,0,0.05,0.05,NONE,NONE
4240.0,0.07486825519231918,12.574549517678088,17.6956118388861,396.8558423774309,-6.988832589055702,-21.808636954130655,49.90783322459784,37.77511419477159,-122.41939969295278,4.067901410062179,0.13169805860202424,-0.12158721684584257,3,16.3743103476868,0,0,21.70851397909815,397.5160626388011,4.070032710019098,187.5638534075513,-1.7306774943897096,-0.9396765874155832,0.0,0.0,0.0,3.598335301463618,446.37801001655436,-1.0071641948118781,False,False,0,0,0.05,0.05,NONE,NONE
4260.0,-0.045844760419626124,17.643590031718485,16.455929424282967,257.71074841723055,-6.911524642703034,-1.9545538724373903,49.94037838062902,37.77511519553425,-122.41939959013568,4.139441592163175,0.18750700840264634,-0.10872266304343194,3,16.39176107434642,0,0,24.126665417466953,257.81082076494783,4.1436862300529596,120.90757191844013,-1.6272578015591677,0.8725363329808999,0.0,0.0,0.0,2.345080798471378,446.37801001655436,-1.304360740352024,False,False,0,0,0.05,0.05,NONE,NONE
4280.0,-0.17801245335554824,14.767985986175013,15.219279014067606,352.8284292220205,-6.874870391929538,-4.0699700232132034,50.04006839097606,37.77511615831817,-122.41939948308475,4.073303768165617,0.02849699102214126,-0.06994721863624605,3,16.39872785544615,0,0,21.207346656983045,352.9188702324856,4.073403449972703,145.96593802419537,-4.984500517351975,0.34833905498654616,0.0,0.0,0.0,3.080583288324216,446.37801001655436,-2.150795965355954,False,False,0,0,0.05,0.05,NONE,NONE
4300.0,-0.34576562110865694,14.060379693973067,17.64170846025418,403.29782557629636,0.7161635933305777,39.75968256420463,50.02345382883549,37.775117195617796,-122.41939950826868,3.4049527247418325,-0.36085121332394493,-0.28052906835527736,3,16.42306627972386,0,0,22.561996994947826,405.25360129487746,3.424020539641109,67.73251689823904,0.8307281070283778,1.2169212138854135,0.0,0.0,0.0,3.0981271203276415,405.25360129487746,-1.4919577065057155,False,False,0,0,0.05,0.05,NONE,NONE
4320.0,-0.3412338472099405,14.412388883655655,17.355748097811016,387.1699466117412,1.6188801402733475,2.5211373536104125,50.03701600681226,37.77511823585868,-122.41939954381728,3.8930980625203633,-0.0896963977829741,0.05841481408240627,3,16.392737421583004,0,0,22.562255780548043,387.1815394176262,3.894131221232157,0.012939280010826337,-0.6781088988383033,-1.5164429070427587,0.0,0.0,0.0,1.2322388266796651,405.25360129487746,-1.6379633210221556,False,False,0,1,0.05,0.9,NONE,RAPID_VOLTAGE_COLLAPSE
4340.0,-0.11996669326670582,16.213673268623275,17.16396677197214,268.6173264161302,3.2727016500278063,2.097320744091067,50.07699100458075,37.77511929076731,-122.41939966786792,4.583649688407302,0.026228315962124327,-0.2029545611149514,3,16.38508209632567,0,0,23.611424103990977,268.6454492101876,4.583724728928927,52.45841617214673,-1.998749888424456,-0.3827662628665962,0.0,0.0,0.0,1.2667978279250356,405.25360129487746,-1.6915777998291048,False,False,0,0,0.05,0.05,NONE,NONE
4360.0,-0.1626032867239909,16.203790113105153,19.61375917183416,437.129651914522,11.219070626002036,1.4447711913017374,50.058101168098965,37.77512032965004,-122.4193998153933,4.247895442712882,-0.10429882799155628,-0.20350837859393242,3,16.387260793720092,0,0,25.44187105362195,437.2759854970515,4.249175677439247,91.52234748154856,0.9444918240891553,0.1089348697210113,0.0,0.0,0.0,2.476004387672489,437.2759854970515,-1.1772278746994402,False,False,0,0,0.05,0.05,NONE,NONE
4380.0,0.4674237300586097,12.47720724497061,18.658504463513268,335.10801837206316,1.3341682776479868,6.92986777370986,50.03582736491817,37.775121164284435,-122.41939982053711,3.3789723446940334,-0.2557453288320213,-0.008446166851841347,3,16.383446779215127,0,0,22.45081233257081,335.1823191184243,3.38863686154573,149.55293605255696,1.1136901590397486,-0.19070072524822734,0.0,0.0,0.0,1.6228339936609917,437.2759854970515,0.04241026057890451,False,False,0,0,0.05,0.05,NONE,NONE
4400.0,-0.04149176134917352,13.670305319476778,17.33786467563,348.00189913244304,-5.659375947457157,-16.549012839908084,49.96990833722274,37.77512205369772,-122.41939988059119,3.914381197390122,-0.0910267325430872,-0.10692853116598343,3,16.429374828441457,0,0,22.078961039968195,348.4411286887315,3.9154394420701744,18.59256463013068,3.295951384771456,2.2964024613164824,0.0,0.0,0.0,1.8539399959346146,437.2759854970515,0.5354549161275202,False,False,0,0,0.05,0.05,NONE,NONE
4420.0,0.16065072672294403,17.492324638956948,14.951519490573514,308.1754601697617,1.3001503621140293,2.127408207431957,49.94942172543182,37.77512286319176,-122.41939969892265,4.089862872514665,-0.15390561857095517,0.1257025459085056,3,16.37512455458453,0,0,23.012065639739006,308.1855455849439,4.092757659012028,46.65522998854055,1.0243305895460963,-2.712513692846308,0.0,0.0,0.0,1.7444371282706275,437.2759854970515,0.8759428138044001,False,False,0,1,0.05,0.9,NONE,RAPID_VOLTAGE_COLLAPSE
4440.0,-0.2555104586512695,14.886679020216002,19.168875446952832,327.97624794388594,9.151790137712641,-6.798219804673282,49.99938076370879,37.77512393717902,-122.41939965153465,4.050840289477286,0.11773797633697314,0.3208364063947882,3,16.399457977969515,0,0,24.271882575239413,328.1743290852999,4.052550959818315,62.99084677502034,-2.497951913848695,1.2166711692492171,0.0,0.0,0.0,1.9282363336943227,437.2759854970515,0.7761024087195523,False,False,0,0,0.05,0.05,NONE,NONE
4460.0,-0.24353258745497267,16.275515631943946,17.221639740394227,345.20109937020766,-3.24877958804488,-20.936980048801964,49.98987877189436,37.77512484132352,-122.41939965810236,4.135598356203616,-0.11473452669626993,-0.15947030926667566,3,16.376429301838463,0,0,23.696763334994298,345.85070580927777,4.1371895986829355,28.755962012255765,0.4750995907215838,-1.151433806552582,0.0,0.0,0.0,0.8002777246457421,348.4411286887315,0.682223962046038,False,False,0,0,0.05,0.05,NONE,NONE
4480.0,-0.19319739388463578,12.805440938897116,18.032613130846016,397.30625890976256,-1.7096214633360753,20.426407239843968,49.97601414055609,37.77512589593672,-122.41939948959511,3.9003966053450085,0.3079069514369289,-0.028754700980614632,3,16.382669875591947,0,0,22.117680240010394,397.83466953892685,3.9125311972852113,78.9541547491952,0.6932315669136102,0.3120286876741929,0.0,0.0,0.0,0.9309550323396955,397.83466953892685,0.5981322436208103,False,False,0,0,0.05,0.05,NONE,NONE
4500.0,0.07976323108329826,12.038932736255175,17.96887041797779,415.9154317174632,16.197992176410906,-8.513248847392186,49.93304581894229,37.775126693875386,-122.4193993820513,3.8057390650848566,0.3203871420609361,0.31263553670872424,3,16.398092446424915,0,0,21.629206358514097,416.31778330646466,3.819201192960503,24.42369407481486,2.148416080689941,0.7711285416483804,0.0,0.0,0.0,1.1865082056296026,416.31778330646466,0.3686251828045073,False,False,0,0,0.05,0.05,NONE,NONE
4520.0,-0.12629933658407225,17.38328353776436,17.03427070374556,347.8616051089258,1.1853700658071689,13.390619024035445,50.00008678764445,37.775127784164084,-122.41939948011947,4.280705971521081,-0.4645751247307862,-0.07143654978388232,3,16.38447253555989,0,0,24.338464957453976,348.1212577378721,4.3058418063294965,135.46292994699397,-3.352048435107946,-0.6809955432512282,0.0,0.0,0.0,1.5825085267931154,416.31778330646466,-0.5066506221263012,False,False,0,0,0.05,0.05,NONE,NONE
4540.0,-0.21406078075870572,17.510043782779366,17.435082761609138,287.4223450156994,3.2293803649800745,36.93145691330756,49.98869754312304,37.77512881131496,-122.41939936731374,4.513819285494424,-0.09314229215985091,0.18798198748936407,3,16.370105588412,0,0,24.710919978763833,289.80332265452887,4.514780175012975,18.62275106549287,0.5694622260705273,-0.7183473573945776,0.0,0.0,0.0,1.8539868757536304,416.31778330646466,0.10683220585754327,False,False,0,0,0.05,0.05,NONE,NONE
4560.0,0.09015677428905852,13.189407649407705,15.366332928430168,440.39374874751223,-1.143792504375744,-14.800848218455968,49.99490098792203,37.77512979413709,-122.41939933111203,4.032467886865353,-0.24096493187176013,0.1900163413755675,3,16.373983076030772,0,0,20.250747888746282,440.64387809791,4.039661044814563,223.00860450087754,-0.3101722399495799,0.19387438093865228,0.0,0.0,0.0,3.5429648818147133,440.64387809791,-0.050222160276689465,False,False,0,0,0.05,0.05,NONE,NONE
4580.0,-0.16639167222319265,12.847444781307708,18.180632137365933,419.6341564897087,1.6162762642328008,-5.956091523287671,49.88487066323929,37.77513084005286,-122.41939943853839,4.384175631290426,-0.2314856245573026,0.007814623052039548,3,16.366932701735543,0,0,22.262522510074163,419.6795356793388,4.390282628758369,100.58873106639403,5.501516234136972,-0.3525187147614517,0.0,0.0,0.0,3.5115495539838872,440.64387809791,0.9114347731679828,False,False,0,0,0.05,0.05,NONE,NONE
4600.0,-0.15642816739746182,12.257957899507385,17.860671642756685,444.4011728041935,-9.020441017721462,4.856260509030486,49.80190579105091,37.77513184564733,-122.41939953825342,3.8451467912791535,-0.3838317163587418,0.20214703806242937,3,16.363044019821796,0,0,21.663000557818016,444.5192391922181,3.8642568021506114,29.97609761280735,4.148243609418856,-0.19443409568733472,0.0,0.0,0.0,3.49472598543246,444.5192391922181,1.3114002789137658,False,False,0,0,0.05,0.05,NONE,NONE
4620.0,-0.3367890214507651,12.754001654887327,16.077581394264577,439.0492129921886,-6.5491943906610715,12.747391911604112,49.821719903969196,37.77513287706537,-122.41939951797306,4.317704866034853,-0.07358032687344708,-0.2950881794729018,3,16.374539925313563,0,0,20.524780353198448,439.2830515473763,4.318331781450315,56.9110102309784,-0.9907056459141472,0.5747952745883467,0.0,0.0,0.0,3.1746435563841393,444.5192391922181,1.7836688367525255,False,False,0,0,0.05,0.05,NONE,NONE
4640.0,-0.141842489357403,14.785027172529787,18.792019386247503,426.19856246152324,5.115407672134418,16.344176185697123,49.854254195125776,37.77513403264544,-122.41939936003648,4.132243817850653,-0.01586055351798174,-0.07014535899041896,3,16.37972472051442,0,0,23.911443712108504,426.54251152154825,4.132274256063219,169.3331679455028,-1.6267145578289899,0.2592397600428953,0.0,0.0,0.0,2.171806424773875,444.5192391922181,1.344433479972622,False,False,0,0,0.05,0.05,NONE,NONE
4660.0,-0.19253921998295337,16.62405965330629,17.35296239420805,366.266022777153,6.768651579376489,12.734806457537067,49.8931390807705,37.77513507718096,-122.41939916033857,4.659194923205797,-0.32825636365237365,0.08300556868260293,3,16.372200592933297,0,0,24.03168189209229,366.54984569729106,4.6707440063339964,6.01190899918933,-1.9442442822363404,-0.3762063790562209,0.0,0.0,0.0,2.2486018935073613,444.5192391922181,1.01761907151527,False,False,0,0,0.05,0.05,NONE,NONE
4680.0,-0.24788391677169214,15.11396443174934,19.70543455741599,380.3566375909675,-6.856463329196341,20.04302656391819,49.87575840713038,37.77513595944384,-122.41939938588312,4.489321506392902,0.015170236944560567,0.08690604676680772,3,16.385547042754403,0,0,24.835408560701847,380.94606673744926,4.489347137819796,40.186333430477816,0.8690336820063038,0.6673224910553444,0.0,0.0,0.0,3.2944686562490935,444.5192391922181,0.09112256108913641,False,False,0,0,0.05,0.05,NONE,NONE
4700.0,0.07754800024021027,14.088564155336282,17.418523638452836,298.1993172329209,-1.5308785746097133,3.0013789473542953,49.89889891903779,37.77513684717835,-122.41939935852312,4.230569119102604,-0.2719745999848125,-0.05074679854136579,3,16.385832811713843,0,0,22.40309396924246,298.2183506476019,4.239302449052377,121.6157295729694,-1.1570255953706976,0.014288447971999574,0.0,0.0,0.0,2.9117570676950097,439.2830515473763,-0.9699312798687743,False,False,0,0,0.05,0.05,NONE,NONE
4720.0,-0.091492728253275,16.030458802346196,15.728739826838979,291.2798006002661,-3.00365572485996,10.280494729999445,49.90850655692855,37.77513780332396,-122.41939939524383,4.21750284770217,-0.10093540405524798,0.0427728987921835,3,16.400419996071534,0,0,22.45834448202789,291.476641872617,4.218710493286747,2.7625256392715514,-0.4803818945379845,0.7293592178845287,0.0,0.0,0.0,1.1299045445967129,426.54251152154825,-0.8678665295935417,False,False,0,0,0.05,0.05,NONE,NONE
4740.0,0.06392882808317304,15.994448802387144,19.12958618168359,308.1922608460296,-5.6232694039086475,-7.553738967580873,49.96730491777875,37.77513891750203,-122.41939941640801,4.329146527882509,0.08727300764899093,-0.10311086579274353,3,16.369742525001616,0,0,24.935267130506208,308.33609872437324,4.330026124371686,123.8461324239159,-2.939918042509859,-1.5338735534959014,0.0,0.0,0.0,1.5358395526759832,380.94606673744926,-1.1305072265297156,False,False,0,1,0.05,0.9,NONE,RAPID_VOLTAGE_COLLAPSE
4760.0,0.31532650661752265,15.222748633259618,17.34818971646468,305.2879512257509,5.469636261916598,-1.6208789555468812,49.915178939827896,37.77513999240712,-122.41939943078381,3.9225478380021688,0.662298507455409,-0.08510796138513298,3,16.39047464528236,0,0,23.0822701049016,305.3412473496541,3.9780674773554496,92.64985128023042,2.6062988975425583,1.0366060140372113,0.0,0.0,0.0,1.57421574062389,380.94606673744926,-0.22039859057393585,False,False,0,0,0.05,0.05,NONE,NONE
4780.0,0.25663178101363004,17.703314937686688,18.724980435135265,355.85322030452636,-1.8022023650491876,16.89415169098373,49.821459602412155,37.77514101536128,-122.41939963666744,3.6933211701871906,-0.2474729711430621,-0.03496772983394931,3,16.376922861770474,0,0,25.77010112417383,356.25857841717203,3.7016029146302625,134.39155096361154,4.685966870787084,-0.6775891755943064,0.0,0.0,0.0,2.353005667533116,356.25857841717203,0.5429880471822202,False,False,0,0,0.05,0.05,NONE,NONE
4800.0,-0.4529163265655519,17.230425752884152,16.986329809303943,364.27996938819484,2.22305520912499,-9.614700159640911,49.8082643117475,37.7751419883685,-122.41939971748945,4.127140074921963,-0.41738068199452827,-0.11543928920510846,3,16.392132494639654,0,0,24.19975423873083,364.41361189050934,4.148191392851718,78.51734427215007,0.6597645332327318,0.7604816434589878,0.0,0.0,0.0,1.8067694846477773,364.41361189050934,0.906346072902906,False,False,0,0,0.05,0.05,NONE,NONE
4820.0,0.02834290674001513,15.266322432533,14.800230302801536,428.21301619166195,8.078243080440611,22.137212231036575,49.83538076326044,37.775142944121775,-122.41939976306914,4.049891030342691,0.06544679387725892,-0.16175508249135714,3,16.402569645526587,0,0,21.26283661580429,428.86093481755734,4.050419810399781,146.845881146327,-1.3558225756469255,0.5218575443466378,0.0,0.0,0.0,3.067436164241057,428.86093481755734,0.7312579366811178,False,False,0,0,0.05,0.05,NONE,NONE
4840.0,-0.1946947856286885,16.30016447214636,16.56092835985988,291.80565240980195,-6.174498468254479,11.617984431116877,49.887650305966694,37.775143928586935,-122.4193998490246,3.907211951816704,0.308406049953878,0.203780491206114,3,16.36974318106365,0,0,23.23784878208361,292.10210675701455,3.9193646842399663,98.75060831396603,-2.6134771353127917,-1.6413232231467845,0.0,0.0,0.0,2.7226447112475514,428.86093481755734,0.7965461181205313,False,False,0,1,0.05,0.9,NONE,RAPID_VOLTAGE_COLLAPSE
4860.0,-0.03944943666056985,13.162925789716926,19.553772768835046,330.3902050339764,0.32281320897137733,11.962717457532616,49.905447746408775,37.77514489356425,-122.41939984445818,4.021648110068592,-0.13784970787390036,0.06737540826827146,3,16.422582536842558,0,0,23.571470066563155,330.6068638121864,4.024009948195854,16.681064223977238,-0.8898720221040435,2.641967788945365,0.0,0.0,0.0,2.665747800064686,428.86093481755734,0.09731193419121098,False,False,0,0,0.05,0.05,NONE,NONE
4880.0,0.24613232071172517,14.443726785794437,17.25284404491886,364.1051287596808,-1.9960667131265497,16.2817216544154,49.8968493913814,37.775145647439615,-122.41939994162844,4.102910569773173,-0.1139371948519402,0.06860765631011807,3,16.36813611170615,0,0,22.5020543999935,364.47444839310594,4.1044922740732686,53.470783328482696,0.42991775136869137,-2.7223212568204147,0.0,0.0,0.0,1.2695070780236526,428.86093481755734,-0.7538978896924675,False,False,0,1,0.05,0.9,NONE,RAPID_VOLTAGE_COLLAPSE
4900.0,0.07955604065415403,14.792426604858054,17.623713616039034,416.36892078423,-6.061874515667803,-1.3864926596997371,49.86203513376235,37.77514672848527,-122.41939985952774,3.795400262744858,0.10617940811386628,0.03655318444262113,3,16.377194340715093,0,0,23.00907420223327,416.41535379902064,3.7968851998909776,25.35099011198838,1.7407128809526995,0.45291145044714654,0.0,0.0,0.0,0.81187551451826,428.86093481755734,-0.537708220148474,False,False,0,0,0.05,0.05,NONE,NONE
4920.0,-0.04067339666163947,12.799915638105897,18.86290042631512,452.8853782988298,-6.109242259186095,-6.089164933228146,49.89368932562966,37.775147633731216,-122.41939970859059,3.7450552061025815,-0.011965593481184554,0.2020153978387533,3,16.395548210089565,0,0,22.795800208830205,452.96751169089333,3.7450743213163884,10.663699670153193,-1.58270959336555,0.9176934687236127,0.0,0.0,0.0,0.16754427321625864,452.96751169089333,-0.5830856236921989,False,False,0,0,0.05,0.05,NONE,NONE
